File,Action_Type,PersonNo,var_Accelerometer_X,mean_Accelerometer_X,std_Accelerometer_X,max_Accelerometer_X,min_Accelerometer_X,range_Accelerometer_X,kurtosis_Accelerometer_X,skewness_Accelerometer_X,var_Accelerometer_Y,mean_Accelerometer_Y,std_Accelerometer_Y,max_Accelerometer_Y,min_Accelerometer_Y,range_Accelerometer_Y,kurtosis_Accelerometer_Y,skewness_Accelerometer_Y,var_Accelerometer_Z,mean_Accelerometer_Z,std_Accelerometer_Z,max_Accelerometer_Z,min_Accelerometer_Z,range_Accelerometer_Z,kurtosis_Accelerometer_Z,skewness_Accelerometer_Z,var_Accelerometer_N_XYZ,mean_Accelerometer_N_XYZ,std_Accelerometer_N_XYZ,max_Accelerometer_N_XYZ,min_Accelerometer_N_XYZ,range_Accelerometer_N_XYZ,kurtosis_Accelerometer_N_XYZ,skewness_Accelerometer_N_XYZ,var_Accelerometer_N_HOR,mean_Accelerometer_N_HOR,std_Accelerometer_N_HOR,max_Accelerometer_N_HOR,min_Accelerometer_N_HOR,range_Accelerometer_N_HOR,kurtosis_Accelerometer_N_HOR,skewness_Accelerometer_N_HOR,var_Accelerometer_N_VER,mean_Accelerometer_N_VER,std_Accelerometer_N_VER,max_Accelerometer_N_VER,min_Accelerometer_N_VER,range_Accelerometer_N_VER,kurtosis_Accelerometer_N_VER,skewness_Accelerometer_N_VER,Accelerometer_corr_XY,Accelerometer_corr_XZ,Accelerometer_corr_YZ,Accelerometer_corr_NV,Accelerometer_corr_NH,Accelerometer_corr_HV
UMAFall_Subject_01_ADL_Aplausing_1_2017-04-14_23-38-23.csv,A,MA,0.0008761885061941511,-0.8784699987192623,0.029600481519633275,-0.79443359375,-0.906005859375,0.111572265625,2.761511972272303,2.0441283079940953,0.0006831751169402745,0.44065381659836067,0.026137618807769665,0.467041015625,0.364013671875,0.10302734375,1.9365519750090971,-1.584275712436006,0.001694287595853128,0.21778944672131148,0.04116172488918714,0.279052734375,0.173583984375,0.10546875,-1.937890523233422,0.20413180757571925,0.0007877743627620566,1.0078407713925672,0.028067318410600905,1.041023096913045,0.9302824024358735,0.1107406944771715,1.082731006338764,-1.3634075532716823,0.0009350881343745391,0.4929774419579494,0.030579210820008734,0.5391130285492781,0.40828269657502114,0.13083033197425697,0.8844608630203705,-0.8699346758727594,0.0008305109713699545,0.9060095048426022,0.02881858725492897,0.9470064103494659,0.8217551488480027,0.12525126150146315,2.065904364821943,-1.6578646413929385,0.02043344635948342,0.14976483621120656,0.06162232524028147,0.9204415494859628,0.4305013642309286,0.12792717232486495
UMAFall_Subject_01_ADL_Aplausing_2_2017-04-14_23-38-59.csv,A,MA,0.0008023484157082813,-0.8733310386782787,0.028325755342237236,-0.85009765625,-0.962890625,0.11279296875,3.7084864800550017,-2.210654295669302,0.0007505230239180269,0.3843934106045082,0.027395675277642396,0.44677734375,0.297607421875,0.149169921875,2.129426832859659,-1.408398406000708,0.0012952979796571156,0.1274894339139344,0.03599024839671318,0.15625,0.040283203125,0.115966796875,0.5731560031470697,-1.3410478336587512,0.0005774666503473265,0.9638217839041211,0.024030535789851346,1.0384765636479247,0.9217871931252842,0.1166893705226405,3.5460350644718703,1.7066045051758802,0.0008187675043191838,0.4064711401120406,0.02861411372590778,0.44870097963155203,0.32482494995262423,0.1238760296789278,1.090827420427516,-1.3216912423724627,0.0006978101875075561,0.8833671642934658,0.026416097128598617,0.9640789012039326,0.8594840587426963,0.10459484246123629,3.394928475190561,2.1158169810191874,0.266967482615956,0.523327023013373,0.1159035894382971,0.9096704265038302,0.045986111773218354,-0.35215863409664466
UMAFall_Subject_01_ADL_Aplausing_3_2017-04-14_23-39-35.csv,A,MA,0.0007128005796442917,-0.8802230084528688,0.026698325408989452,-0.802734375,-0.90576171875,0.10302734375,0.09986588472974889,1.043383411288604,0.0009695365129272794,0.3811275294569672,0.031137381279216135,0.453125,0.349609375,0.103515625,0.6664126311387153,1.5193440852289946,0.0002949975227397647,0.1775422643442623,0.017175491921332695,0.250732421875,0.15966796875,0.091064453125,5.096275330122939,2.0158161837459323,0.0006857523100733306,0.9761364672898472,0.026186872857852473,1.0259980936367328,0.8949545312765158,0.13104356236021697,1.2262997325986271,-0.8796418304348369,0.0008775756329948268,0.4209038656994728,0.02962390306821211,0.48918136029809234,0.39325932098711075,0.09592203931098159,0.16268695794563826,1.2900153478174066,0.000685252188068995,0.8981264156646784,0.02617732201866713,0.939825004206771,0.8185551302268548,0.12126987397991618,0.10653656897268116,-0.9844944760824964,0.09178131583716767,0.07279511856569085,0.01970795494915004,0.8728028716419731,0.4084547181024146,-0.06889256477433636
UMAFall_Subject_01_ADL_HandsUp_1_2017-04-14_23-32-44.csv,A,MA,0.00014260193037856468,-0.8309906506147541,0.011941605016854505,-0.7822265625,-0.842041015625,0.059814453125,11.160575381357557,3.262973798365677,0.0007205176874588096,0.5019411180840164,0.026842460532872345,0.53076171875,0.46875,0.06201171875,-1.9231006943196045,-0.17232991800422423,0.00025313727842654035,0.23550365010245902,0.015910288445736626,0.28125,0.21923828125,0.06201171875,4.380061447354364,2.3195969960417786,0.00033219926353428346,0.9993615566315628,0.01822633434166847,1.0283244858355485,0.9414661435903988,0.08685834224514966,1.1114099140179423,-0.8916464193802387,0.0006195163117263313,0.5547568731773095,0.024890084606652735,0.6002428517009315,0.5174862186236984,0.08275663307723313,-1.5472094476982408,-0.11961125558269647,0.00016943350626294406,0.8638460663762416,0.013016662639207642,0.8852991848963302,0.8158712504975636,0.0694279343987666,7.455832488742841,-2.2995336782223257,-0.1186457563403195,-0.15287980723186437,-0.06225605920887203,0.6783565157576592,0.8440777229054175,0.22339554420850313
UMAFall_Subject_01_ADL_HandsUp_2_2017-04-14_23-33-21.csv,A,MA,0.004991271359021549,-0.8461233670594263,0.07064893034591216,-0.71923828125,-1.00048828125,0.28125,-0.723988428184382,-0.18483519891111794,0.009100248351123164,0.48827324538934425,0.09539522184639629,0.688232421875,0.28515625,0.403076171875,-0.5864144037745453,-0.197144047445429,0.0077833115403118025,0.12110175461065574,0.0882230782749718,0.279052734375,-0.0830078125,0.362060546875,-0.5085118057783933,-0.1239860486245364,0.003484340647027252,0.9935241097063103,0.0590283037790114,1.159961208813005,0.8800580086337112,0.2799032001792937,0.885740052643059,0.8373387277338272,0.008348652967698855,0.5113427300251876,0.09137096348238238,0.6980923578593476,0.34558594867632547,0.3525064091830222,-0.8337508829422138,-0.04009325790934693,0.005359640947636324,0.8590016139565859,0.07320956868904722,1.0265806431669402,0.7258706439166566,0.30070999925028363,-0.5696922259857256,0.29289158462840087,0.45026670495806026,-0.22464531830013962,-0.09538244158744223,0.7052806144259608,0.39499949456175143,-0.3525612280674429
UMAFall_Subject_01_ADL_HandsUp_3_2017-04-14_23-33-59.csv,A,MA,0.0001043825853066366,-0.8933425653176229,0.010216779595676741,-0.84423828125,-0.905029296875,0.060791015625,14.279960599293128,3.4101388141064843,0.001388487985225323,0.41097272028688525,0.03726242054973513,0.45068359375,0.359130859375,0.091552734375,-1.906567700715929,-0.3112558416306265,0.0013283547156495471,0.2256339651639344,0.03644660087922531,0.26416015625,0.17529296875,0.0888671875,-1.886808911259144,-0.3662675692328063,0.00036141457371724375,1.0100939005907124,0.019010906704238065,1.0414518548090268,0.9725847026447166,0.06886715216431016,-1.2765783707501563,-0.041683876930797475,0.001369577466744245,0.47024934021688847,0.037007802781903236,0.519265529971524,0.407154104249532,0.11211142572199195,-1.269196824732494,-0.2272214579828008,0.00017844380550791368,0.922065809229943,0.013358286024333874,0.9404308600334234,0.867517906685741,0.07291295334768233,4.274339060320919,-1.6083064860719238,0.053025355220470145,-0.0274824315550121,0.019529612298646297,0.6156065126965934,0.8813746432253112,0.2850427235163803
UMAFall_Subject_01_ADL_MakingACall_1_2017-04-14_23-30-27.csv,A,MA,0.1771469417491246,0.468842053022541,0.4208882770393167,0.90625,-0.223876953125,1.130126953125,-1.5027884485644802,-0.45508513105925663,0.33712987326533417,0.3616242955942623,0.5806288601726013,1.142822265625,-0.27880859375,1.421630859375,-1.931902900263433,0.03674908483739405,0.018993438593025415,0.41400246542008196,0.13781668474109154,0.5947265625,0.08251953125,0.51220703125,-0.1840175647056541,-0.8793296230250104,0.008880907658914677,1.01871283613883,0.09423856778896142,1.2789069826453736,0.7954915697596967,0.4834154128856769,0.6280676405322918,0.05028841917131417,0.05969968990368701,0.7705416217531822,0.24433519988672733,1.197690729589258,0.425900014010033,0.771790715579225,-1.6637269931855998,0.21424335223772162,0.10536768456069633,0.693177849370367,0.3246038887023634,1.0672182059164186,0.12445545795406839,0.9427627479623502,-1.428495614299925,-0.4476826560706973,-0.9062042699083553,0.7371783335592795,-0.6487694918652026,0.055441425548073686,0.4857013430210512,-0.8068257596418847
UMAFall_Subject_01_ADL_MakingACall_2_2017-04-14_23-31-05.csv,A,MA,0.024644655738371973,-0.3167504482581967,0.1569861641622343,0.017578125,-0.649658203125,0.667236328125,-0.5165524650593478,-0.2963317808852007,0.03822279080667131,0.8421490778688525,0.19550649811878712,1.479736328125,0.304931640625,1.1748046875,2.0260858885171853,0.5656474631532757,0.0323854809576045,0.3150894915471312,0.1799596648074354,0.693115234375,-0.086181640625,0.779296875,-0.4353437944400924,-0.3619234187632296,0.02676816847506622,0.9880229559936717,0.163609805559038,1.4967103091052787,0.48343357767635814,1.0132767314289206,1.941672962768223,0.2854341061397014,0.032258297835110875,0.9199009418794797,0.17960595155815653,1.4904304465400804,0.33692909981161573,1.1535013467284647,2.5757186024785543,0.24656604432973264,0.034679493340925155,0.47074034617910376,0.1862243092104926,0.8133206990959605,0.05721074950174159,0.756109949594219,-0.810532545047991,-0.34409194209017807,0.30359840798938004,-0.3549329347250092,-0.2315915717531141,0.1621793368008775,0.9324682957780335,-0.09839358381709451
UMAFall_Subject_01_ADL_MakingACall_3_2017-04-14_23-31-42.csv,A,MA,0.0018984215832798862,-0.6222984439036885,0.04357087999203007,-0.5322265625,-0.715576171875,0.183349609375,-0.01893438591902452,-0.15613278871165615,0.0023826064959249858,0.6195768762807377,0.04881195033928665,0.751220703125,0.49365234375,0.257568359375,0.7706639944885878,-0.2838789882140316,0.0026251789650630426,0.45504210425204916,0.05123650032021159,0.5791015625,0.356689453125,0.222412109375,0.17240642387210148,0.3789664822817359,0.0027322956502586785,0.9911103178586831,0.052271365490664946,1.1390714647649356,0.8651038904589619,0.27396757430597374,1.3098084556876763,0.21369209182892138,0.0022331593230778884,0.77049851572047,0.04725631516610122,0.9137843108095428,0.6496410919539362,0.26414321885560665,1.2570282339461425,0.2586141507360006,0.0022672347188729147,0.772358754823685,0.047615488224661884,0.9077026629028226,0.684482193307702,0.22322046959512065,0.13875672552025575,0.41511065920185003,-0.3418537863706144,-0.044492350717246845,-0.08589167447981454,0.8272049958581594,0.8636399739069917,0.598949094100703
UMAFall_Subject_01_ADL_OpeningDoor_1_2017-04-14_23-35-12.csv,A,MA,0.0019701946302841267,-0.7722288037909836,0.04438687452709558,-0.678955078125,-0.8369140625,0.157958984375,-1.3284186215822793,0.020728372081233754,0.0018101725096259613,0.559386206454918,0.042546122145572345,0.638916015625,0.469482421875,0.16943359375,-0.16485615897742623,-0.1981266832708805,0.00364703242896033,0.20787173411885246,0.06039066508128827,0.39794921875,0.11669921875,0.28125,1.699090521463253,1.4249199611840981,0.0012962082572171773,0.9790258378616633,0.03600289234515996,1.0599045749213218,0.9027150038551881,0.15718957106613374,-0.6254005557097084,-0.09061370317011393,0.0018941876920634145,0.5996900807461554,0.04352226662368832,0.7002411086509781,0.5170191787689358,0.18322192988204233,-0.039486258139334485,0.2210713570971719,0.001900829507287329,0.8019996610048893,0.04359850349825472,0.8755922356846383,0.7119154858149781,0.1636767498696602,-1.2743468474109605,-0.24677625779292442,0.25983201934575206,0.1873228217399727,-0.14263693930377544,0.7692676118400634,0.4066794907484764,-0.15249552299424338
UMAFall_Subject_01_ADL_OpeningDoor_1_2017-04-14_23-36-23.csv,A,MA,0.004528349312276788,-0.6818487448770492,0.06729301087242856,-0.53173828125,-0.779052734375,0.247314453125,-0.4221049777875945,0.4860320715104561,0.0025420639032874607,0.548768090420082,0.050418884391539846,0.647705078125,0.47265625,0.175048828125,-0.8614890212631314,0.26457646222902553,0.0031526056795172347,0.46929431352459017,0.05614806924122356,0.574951171875,0.352783203125,0.22216796875,-0.25059691136171525,-0.498379114206306,0.00120541361680669,0.9975826062756785,0.034719067049773816,1.0752891617370568,0.9317213939147521,0.14356776782230474,-0.6715038565345042,0.20766024221895263,0.0038115554482124206,0.7233504082952424,0.06173779594553421,0.8594302419766989,0.6010839366979447,0.25834630527875424,-0.7999065155851364,-0.146100072639953,0.0023506118642539456,0.8309018137242461,0.048483109061341616,0.9013846448404264,0.7229085945609499,0.17847605027947644,-0.5679228052109289,-0.739754667653823,0.6644600990623106,0.47902151823431316,0.37349871534603113,0.7220439768328847,0.3629136593513963,-0.2754228944664706
UMAFall_Subject_01_ADL_OpeningDoor_1_2017-04-14_23-36-58.csv,A,MA,0.0011021245698459815,-0.8153256275614754,0.033198261548550725,-0.723876953125,-0.89697265625,0.173095703125,1.7399554883891621,1.266066043356821,0.002512100290079586,0.45651095030737704,0.05012085683704525,0.579833984375,0.408447265625,0.17138671875,-0.010077741979935606,1.1090494346364643,0.0029048856490296745,0.3425773245389344,0.05389699109439853,0.40380859375,0.22021484375,0.18359375,-0.5012731101103425,-0.7422467339708195,0.0011449537383668648,0.9978994968619014,0.0338371650462456,1.0955605371620745,0.8921044426252266,0.20345609453684788,1.5720512321920745,-0.24332809620685367,0.0010717981137607397,0.5744870984424685,0.03273832790111217,0.6625998601687048,0.5093513062003981,0.1532485539683066,0.2783558757310427,0.10083493674707686,0.0014037563529611622,0.8858192139594843,0.03746673662011628,0.9295404462155831,0.7805932908837386,0.14894715533184444,0.3488714355680087,-1.0123955871254546,0.00549947370870715,-0.04005381429350244,-0.6485810625829607,0.7412646656037206,0.6099450087798455,0.12203999770454602
UMAFall_Subject_01_ADL_OpeningDoor_3_2017-04-14_23-37-35.csv,A,MA,0.0010472263794779127,-0.7531938396516393,0.032360877297717264,-0.718994140625,-0.842041015625,0.123046875,1.3654451428959513,-1.6674991337895737,0.0014917688942997832,0.49851914702868855,0.038623424165909775,0.583740234375,0.4130859375,0.170654296875,0.10647203542102135,-0.6267055976234774,0.0006352044845539365,0.37068951716188525,0.025203263371117966,0.440673828125,0.303466796875,0.13720703125,0.7706879089346454,-0.05762821871200141,0.0009605895305656263,0.9774509397983151,0.030993378818154473,1.0597019658722642,0.8981499584980126,0.16155200737425157,0.908364799672249,0.4669803489229784,0.001340078362117703,0.6218569394855634,0.03660708076476057,0.7074456449461568,0.5212111882641806,0.18623445668197625,0.6293456325367526,-0.555849036120034,0.0009868375389236064,0.8398784842932548,0.031413970441884716,0.9330170897465189,0.7907718235638166,0.14224526618270228,1.3751004398067082,1.463701758334913,0.2388744592019606,-0.018376495888479453,0.1781769641994252,0.790023337289376,0.5906748622296556,0.027400473293709725
UMAFall_Subject_01_ADL_Sitting_GettingUpOnAChair_1_2017-04-14_23-28-16.csv,A,MA,0.0017737700965235138,-0.6727715163934426,0.04211615006768204,-0.597900390625,-0.718017578125,0.1201171875,-1.3603688231357431,0.6152223823436686,0.0019933011036753004,0.5878706134733607,0.04464640079194851,0.651123046875,0.53125,0.119873046875,-1.7643999826678187,0.1561068924616195,0.0008083528182545647,0.43752001152663933,0.028431546181215062,0.505859375,0.3662109375,0.1396484375,-0.6306322493938739,-0.1986294452601425,0.001169371479587389,0.996487504966393,0.034196074037634624,1.0609003535243944,0.921411753497831,0.13948860002656338,-0.48255232826049,0.11235167373211508,0.0017670601024667994,0.73350749957779,0.04203641400579739,0.8044434705163998,0.6677424621984934,0.13670100831790633,-1.3657760512502188,0.096036589943164,0.0014897613445595819,0.8031934559992981,0.03859742665722136,0.856897876136419,0.7122048620005015,0.1446930141359175,-0.8845909211874563,-0.4764270418450531,0.39457364536737255,-0.019159796644138867,0.15742419441507596,0.6698697043711654,0.6378311236639681,-0.08505764904009556
UMAFall_Subject_01_ADL_Sitting_GettingUpOnAChair_2_2017-04-14_23-28-52.csv,A,MA,0.0013269930263686046,-0.7386654713114754,0.036427915482066836,-0.594970703125,-0.813720703125,0.21875,2.955873907793567,1.0065754341148436,0.0018854844114168095,0.5887231045081968,0.043422164978462435,0.739501953125,0.533447265625,0.2060546875,1.6360248284740644,1.045202885255214,0.0014264890079289834,0.2461057569159836,0.0377688894187926,0.28076171875,0.124755859375,0.156005859375,0.9460409372138212,-1.1368195349877563,0.0008836998701362467,0.9779996527122082,0.02972708983631339,1.0434547463562958,0.8700586164393432,0.17339612991695252,2.306297987456804,-0.6484226727914364,0.0013769284028742304,0.6395828799584771,0.03710698590392691,0.749951440510707,0.5823505217186867,0.16760091879202021,0.5897363039239778,0.8353122487267061,0.001416971223688524,0.7794288440212574,0.037642678221515055,0.8450667738066177,0.6564371205539182,0.18862965325269943,1.2502298723609861,-0.8423014862430092,0.36322485627695894,-0.16110213978728313,-0.43678221596051475,0.5800444766713696,0.5175651533589305,-0.3464351667776522
UMAFall_Subject_01_ADL_Sitting_GettingUpOnAChair_3_2017-04-14_23-29-29.csv,A,MA,0.0017768643592876165,-0.7606901575307377,0.0421528689330586,-0.721435546875,-0.9384765625,0.217041015625,3.9375688003701868,-1.8400855868904231,0.0013522495337522746,0.5524582159323771,0.0367729456768461,0.643310546875,0.470458984375,0.1728515625,-0.32201856043594645,-0.3645752557837522,0.0010534944755783496,0.24372038294057377,0.032457579632165265,0.325927734375,0.164306640625,0.16162109375,0.7402832519524014,-1.0028686488450633,0.0016835039617457905,0.9724800032176462,0.04103052475591545,1.1589138429970818,0.8982462140329204,0.2606676289641614,6.0010586353430835,1.8180493149296755,0.0013269775398428048,0.6047071912795082,0.03642770291746111,0.6799581142456118,0.5232010492355138,0.156757065010098,-0.5258701885244168,-0.5194722721079339,0.0016764790067688303,0.7994899027443563,0.04094482881596686,0.9639672379130182,0.7473337544214025,0.2166334834916157,2.926872384050556,1.5479197512066585,-0.06754392252773521,0.04771038643582107,0.0583857962648319,0.8677110864373299,0.5819144304500575,0.1384241912174694
UMAFall_Subject_01_ADL_Walking_1_2017-04-14_23-25-52.csv,A,MA,0.01848651932888344,-0.7510125832479508,0.13596514012379585,-0.476318359375,-0.987548828125,0.51123046875,-1.1613367989263637,-0.10567741904296003,0.00929757043963573,0.5397829149590164,0.09642391010343716,0.80078125,0.350341796875,0.450439453125,0.18282890013706155,0.5626417865143143,0.0072656966949421215,0.31558977971311475,0.08523905615938109,0.50048828125,0.118896484375,0.381591796875,-0.5014929527047687,-0.24883487725335166,0.017962095423873097,0.9857940806754508,0.134022742189052,1.295813114257926,0.7317644754769378,0.5640486387809881,-0.6781282628852416,0.16131859158028777,0.010004637956029062,0.6304074991689503,0.10002318709193915,0.8828959805338223,0.43526850130920813,0.4476274792246142,-0.06047636431436221,0.3983184969912007,0.015355588219121037,0.8208794068189604,0.123917667098445,1.043964325149161,0.5816027196621174,0.46236160548704364,-0.8739029173201862,0.12443532117933047,-0.3413715947298902,0.15869641117967312,0.18687898603285763,0.9283142213563494,0.6511311163542276,0.36909579765692013
UMAFall_Subject_01_ADL_Walking_2_2017-04-14_23-26-33.csv,A,MA,0.07171828642568955,-0.44210665343237704,0.26780270055712574,0.08154296875,-0.92822265625,1.009765625,-1.07291768942686,0.18270811032924697,0.018995862156966994,0.6354660284323771,0.13782547716937893,1.084228515625,0.38037109375,0.703857421875,1.1466667350268906,0.8729356376186869,0.05291467084259283,0.5400230532786885,0.23003189092513418,0.96826171875,0.233642578125,0.734619140625,-1.5416370328562896,0.29036638965325257,0.01660771622056376,1.007888413670198,0.12887092853147197,1.3615656772705158,0.7791923127739068,0.582373364496609,0.11712688638652535,0.5428021039451666,0.03165948612250804,0.8573407519846561,0.17793112746933304,1.1866429147102395,0.5458460801458611,0.6407968345643784,-1.1039048727384149,0.10274629146655521,0.013720155405269833,0.7721254757428572,0.11713306708726547,0.9697638405571631,0.478514130259145,0.4912497102980181,-0.18359789531647674,-0.5222734562104361,-0.21460224659252553,0.8314476607329102,-0.101658356733598,0.7072705500802098,0.6747350932626176,0.449737038154715
UMAFall_Subject_01_ADL_Walking_3_2017-04-14_23-27-12.csv,A,MA,0.006657766514137143,-0.6102354956454918,0.08159513780941327,-0.472412109375,-0.901123046875,0.4287109375,1.5885675888212472,-0.7439689120579385,0.008344358401220353,0.6850866098872951,0.09134745974147476,0.844970703125,0.489990234375,0.35498046875,-0.8545501473609272,-0.038037682665571185,0.00656480101939759,0.3225858094262295,0.08102345968543673,0.50927734375,0.16796875,0.34130859375,-0.43704233948958215,0.09669444729682189,0.011064603465104182,0.9778153102117897,0.10518841887348712,1.3304802374979454,0.8182768495596888,0.5122033879382566,0.8840555543793407,0.8872923338984212,0.00882056043219631,0.7611793831813192,0.09391783873256619,0.9788538791685436,0.5499712893188263,0.4288825898497173,-0.42178860970955867,0.19411473666763443,0.0072513738506275426,0.6944942547283963,0.08515499897614669,1.0350778514036223,0.5339328118678522,0.50114503953577,3.10726949547393,0.9915456087813199,-0.4400962923086818,-0.1273102391139665,0.16586226144593869,0.8427600949539407,0.8948536675913381,0.5837417695410586
UMAFall_Subject_02_ADL_Aplausing_1_2017-04-26_19-47-07.csv,A,MA,0.00010422940462664828,-0.9605933017418032,0.01020928031874178,-0.9091796875,-0.968505859375,0.059326171875,19.115635667766497,4.138344189602373,0.0003741968850620457,0.17592133068647542,0.01934416927815836,0.2509765625,0.157470703125,0.093505859375,6.67568546307888,2.5007889557100564,0.0006762655054936644,0.24866723232581966,0.02600510537363124,0.2802734375,0.218994140625,0.061279296875,-1.9679000935601592,0.11053210292159743,0.00015932542055058474,1.0082173611217886,0.012622417381412513,1.02586931953145,0.9499525522630359,0.07591676726841423,12.097105858001578,-2.956968831102815,0.0006142682610721031,0.30530763244493725,0.02478443586350319,0.3688247378629504,0.27044666025980946,0.09837807760314093,-0.6603359338980797,0.33110727150897895,0.00014679960033175726,0.992571504046882,0.012116088491413277,1.0081765751851282,0.9363962669865221,0.07178030819860604,13.339426019520365,-3.173119713856728,-0.0117220542067577,-0.043563450484925624,0.03340166852158542,0.953361821730607,0.6378731951717207,0.5109980497207598
UMAFall_Subject_02_ADL_Aplausing_2_2017-04-26_19-47-43.csv,A,MA,0.0001825341110021039,-0.9562868212090164,0.013510518531947761,-0.906494140625,-0.96728515625,0.060791015625,8.95627947269125,3.0761757246424772,0.0007837722210284789,0.24319608094262296,0.027995932222886932,0.26953125,0.1796875,0.08984375,0.8374694117061035,-1.6296838439909642,6.006037602659131e-05,0.2628393954918033,0.0077498629682460395,0.275634765625,0.2197265625,0.055908203125,15.1151695261505,-2.7782872085685284,0.00017940500285425518,1.0215412096990886,0.01339421527579183,1.0375784694917214,0.9757398268227716,0.061838642668949784,4.157749347508943,-1.985143270352506,0.0003716876121152144,0.35873846533591425,0.019279201542470953,0.38255831005966023,0.313652298293837,0.06890601176582323,0.45763888300284705,-1.383954833659383,0.00017584497218825273,0.9917835890460382,0.013260655043709295,1.0046613057994855,0.9428448270895444,0.061816478709941114,8.163280787227944,-2.902991461236891,0.15452357821416562,-0.05105135587513601,0.08294398872406489,0.8936449444102686,0.3647840536320306,-0.07309946777916312
UMAFall_Subject_02_ADL_Aplausing_3_2017-04-26_19-48-18.csv,A,MA,0.0001351520989110561,-0.9518082415471312,0.011625493491076245,-0.873779296875,-0.965087890625,0.09130859375,34.415102021611794,5.137869997095848,0.0004237701658342705,0.26078621285860654,0.020585678658578892,0.28076171875,0.21875,0.06201171875,-0.31727414956478617,-1.1027402852005315,0.0004888655709438637,0.2553991098872951,0.022110304632543255,0.280029296875,0.18701171875,0.093017578125,0.10053995204246169,-1.1058532816577635,0.00016480022592451957,1.0198262573735029,0.012837454028136559,1.0386609613792794,0.950754281557219,0.08790667982206046,13.030213015535091,-2.6859824097406886,0.0004472523481854416,0.3656445108313144,0.02114834149964109,0.39429489458742056,0.3133549439471933,0.08093995064022724,-0.37279545085048493,-0.6467944212376426,0.00014406072417314894,0.9857178718108422,0.012002529907196604,1.0029078465417138,0.9152006578604794,0.0877071886812344,19.34003342919496,-3.498318751167906,-0.020498976978010532,0.08467401628070836,0.030950506628357594,0.919605717142183,0.5414630803147591,0.2929486158544952
UMAFall_Subject_02_ADL_Bending_1_2016-06-13_20-25-34.csv,A,MA,0.00037461551812177147,-0.954193615522541,0.01935498690575045,-0.90625,-0.968505859375,0.062255859375,1.1464627688565692,1.6593034427450535,0.0007119583953273753,-0.31084704789959017,0.02668254851635007,-0.28173828125,-0.34326171875,0.0615234375,-1.9850373797498262,-0.1651432732715388,0.001531428359245342,0.09699186731557377,0.03913346853072625,0.147705078125,0.04638671875,0.101318359375,-1.962722591586092,-0.0800802342914683,0.0004131745175833265,1.0093004748116612,0.02032669470384515,1.0347845021790827,0.9592837548121783,0.07550074736690437,0.5324859381710283,-1.0855042885662403,0.0008683753445967892,0.32769769567784973,0.02946820904969946,0.37128724524681855,0.2868123496797741,0.08447489556704446,-1.5325319488298252,0.16595624307393206,0.0003781408429002095,0.959893605392326,0.019445843846442084,0.9767910194053654,0.9090501998326247,0.0677408195727407,1.2941687425801236,-1.6573166482972441,-0.021933114996911907,0.050037801580085056,-0.16667775162539442,0.9136117794944155,0.4381324427912513,0.06872713614827555
UMAFall_Subject_02_ADL_Bending_2_2016-06-13_20-26-15.csv,A,MA,0.001369215849318791,-0.8305023693647541,0.03700291676771969,-0.74951171875,-0.947021484375,0.197509765625,0.5746578366769399,-0.6959250829996768,0.0034395629265269296,-0.5419681736680327,0.05864778705566758,-0.34619140625,-0.6357421875,0.28955078125,2.5821991753416746,1.6155376290148926,0.0009357310057989237,0.1958368019979508,0.030589720590402974,0.266845703125,0.109375,0.157470703125,1.9458009854266942,-0.7398182294103854,0.0008094360146085289,1.0132472110618977,0.02845058900284015,1.07450635354501,0.9415507225518004,0.1329556309932095,0.7777626158803725,-0.4602880707429368,0.0029350245153943943,0.5774930412816512,0.05417586654031843,0.6698998539366551,0.39629250379697295,0.2736073501396821,3.4734776708012083,-1.7836050001516075,0.0013826259278176393,0.853811126332606,0.037183678244864904,0.9533166223730857,0.7685318862266515,0.1847847361464342,0.2825660993940149,0.5864057212157774,-0.5514978380471695,-0.007799920734452175,0.09398323368479053,0.5488139216933255,0.41186055638003777,-0.5143049555169662
UMAFall_Subject_02_ADL_Bending_3_2016-06-13_20-26-59.csv,A,MA,4.173999275666116e-05,-0.8608518506659836,0.006460649561511688,-0.84765625,-0.87353515625,0.02587890625,-1.0914201390447813,0.05847917732890468,0.0007008727782411003,-0.4401375192110656,0.02647400193097183,-0.370849609375,-0.468017578125,0.09716796875,0.6118078434982279,1.2007925484861783,0.0014560491009488134,0.11234871285860656,0.03815821144850494,0.148193359375,0.05029296875,0.097900390625,-1.1919273049961614,-0.8794635660366881,0.00015788806453063874,0.9743800574685441,0.012565351747191112,0.9946799323692641,0.9458116836982945,0.048868248670969616,-0.5110364335398407,-0.5914727430161677,0.0007509834925665834,0.45576985345084814,0.02740407802803414,0.4897556475147719,0.376238130021028,0.11351751749374389,0.9506978019252319,-0.9849287734944113,2.8338519716170055e-05,0.8689841789678061,0.005323393627768855,0.8814409116824897,0.858149539071537,0.02329137261095271,-0.12906202119818744,0.37331226630846204,-0.05465066587666114,0.5597211562331005,-0.07432400036576878,0.3823756607133347,0.8942225229401822,0.030716633901820185
UMAFall_Subject_02_ADL_HandsUp_1_2017-04-26_19-42-49.csv,A,MA,0.0001089921414526434,-0.9147188780737705,0.0104399301459657,-0.906982421875,-0.9677734375,0.060791015625,21.243270891006865,-4.460559949312482,0.0012492094860702264,0.13533395235655737,0.035344157736042124,0.205078125,0.103515625,0.1015625,-0.773104385790087,1.0481784902506481,0.0005629034967370372,0.2596495581454918,0.023725587384447137,0.28125,0.218994140625,0.062255859375,-1.0521549964390289,-0.8968395538263538,0.0001855125642508378,0.9613276953427969,0.01362029971222505,1.0237511307147702,0.9406850434463134,0.08306608726845677,9.425722464172539,2.472506702900023,0.0006488513740697866,0.2947496623439886,0.025472561199647487,0.34335807652493744,0.24233143128912768,0.10102664523580976,-0.12836476114425954,-0.2214919356996604,0.0001533520039317241,0.9511248928866435,0.012383537617810353,1.00649515447194,0.9343476064997872,0.07214754797215284,10.803371492944098,2.636100573996943,-0.12175174582468078,-0.11073780424716509,-0.14124657853592762,0.911001106640857,0.6971219036099042,0.5019854108883838
UMAFall_Subject_02_ADL_HandsUp_2_2017-04-26_19-43-25.csv,A,MA,0.0003643381465328196,-0.9213306864754098,0.01908764381826158,-0.90625,-0.96728515625,0.06103515625,1.689237314981562,-1.7986744626723796,0.00011473978803457461,0.1113401319159836,0.010711665978482273,0.15478515625,0.093994140625,0.060791015625,6.772414410810873,1.96614741143236,0.000499689644151698,0.24300797259221313,0.022353738930024614,0.28125,0.218994140625,0.062255859375,-1.0357797845496908,0.8892382667738137,0.000388919493386559,0.9596248808801727,0.01972104189404198,1.013541328976383,0.9405835620966257,0.0729577668797573,1.4262338457298203,1.5948703281307501,0.00044270232797915594,0.26761616472893396,0.02104049257928996,0.30668610642503114,0.24622281035759677,0.06046329606743436,-1.1028227072524364,0.8236020240168038,0.0003961595819009989,0.9530809550204934,0.019903757984385734,1.0068005353029728,0.9342596639940287,0.07254087130894404,1.4924717266385095,1.6302089911329105,0.0897415836141191,-0.0954925725963315,0.025817592288380667,0.997609394910259,0.3751507155714304,0.3574818539323711
UMAFall_Subject_02_ADL_HandsUp_3_2017-04-26_19-44-00.csv,A,MA,0.0007397998551853367,-0.9361752369364754,0.02719926203383718,-0.90625,-0.968505859375,0.062255859375,-1.9833746352386137,-0.09498909780855438,0.001257803401008981,0.1413173988217213,0.03546552411862795,0.196533203125,0.10302734375,0.093505859375,-1.466188400254389,0.6941795672307556,0.00028522718148153335,0.2410428406762295,0.016888670210574108,0.32666015625,0.2197265625,0.10693359375,16.810622284002505,3.784377477180392,0.0006873944552680154,0.977786077727762,0.026218208467933414,1.0207415883364441,0.9434356026821511,0.07730598565429303,-1.7798167201177337,-0.032680926552093724,0.0006216605573507307,0.28103117949704753,0.024933121692855283,0.3690828954372936,0.2529340471164456,0.11614884832084799,1.6291330433665392,1.3145939876156558,0.0007061078231915109,0.9668709408830012,0.026572689423381875,1.0016426958896243,0.9364507843890111,0.06519191150061321,-1.9566537061397455,0.03673033217093094,0.13447850255781416,0.03369742660285726,0.0853074046183871,0.9774940849764274,0.1694315490147231,-0.002441853205679075
UMAFall_Subject_02_ADL_Hopping_1_2016-06-13_20-37-40.csv,A,MA,1.8548965454101562e-05,-0.91845703125,0.004306850990468739,-0.9072265625,-0.927001953125,0.019775390625,-0.1511810344895177,0.22462063990805028,0.0006438738987094066,-0.2509045210040984,0.025374670415778934,-0.219482421875,-0.28125,0.061767578125,-1.9483612862410251,0.07301145032258631,0.000615043294885771,0.0546995069159836,0.02480006642905964,0.09375,0.031494140625,0.062255859375,-1.3309496989512415,0.788190380431609,4.848579872887837e-05,0.9543150769588681,0.006963174472098079,0.9693849082750298,0.9396456324920621,0.029739275782967645,-0.511378943111402,-0.02146847860411499,0.0006647647275069474,0.25793318316741237,0.02578303177492801,0.2962327334043969,0.22272075588692725,0.07351197751746963,-1.7554689774695544,-0.05618990325017325,1.9570844975938693e-05,0.920412575859292,0.0044238947745102045,0.9305930015437722,0.9117126255434425,0.018880376000329768,-0.5386913606642376,0.04059804488059186,-0.27784795600279716,0.11160853548715807,-0.04745765322657309,0.37833557763788106,0.8246886337476558,-0.1682004850129192
UMAFall_Subject_02_ADL_Hopping_2_2016-06-13_20-38-22.csv,A,MA,6.379937865043597e-05,-0.9229996477971312,0.007987451323822635,-0.909423828125,-0.9658203125,0.056396484375,12.932117653000079,-2.565593621283697,0.00013356703878100452,-0.2617227523053279,0.01155712069596076,-0.18701171875,-0.27783203125,0.0908203125,29.29476227497937,4.512633003176427,0.00022497154324432547,0.050697201588114756,0.01499905141148351,0.126708984375,0.03515625,0.091552734375,20.914392977330458,4.35917519502224,6.812698328073574e-05,0.9609088195020539,0.008253907152417923,1.0042185613009695,0.9453924476297663,0.05882611367120327,11.954550576209437,2.3536182255762483,0.00015727399536348864,0.26695874304909045,0.012540892925286007,0.2956334302801057,0.19156188865178242,0.10407154162832327,21.75979861389017,-3.403213984664329,6.467990885468007e-05,0.9245101262140776,0.0080423820385928,0.9671672381372477,0.9101031046401238,0.057064133497123914,12.3432451504281,2.4300354394313732,-0.014265454865706637,0.004289114675156106,-0.12299071669899529,0.9377769839784059,0.36729421389350536,0.04659408633353482
UMAFall_Subject_02_ADL_Hopping_3_2016-06-13_20-39-00.csv,A,MA,0.0003029503457533207,-0.9224273181352459,0.01740546884612192,-0.90625,-0.96826171875,0.06201171875,2.4839498792900105,-1.8741856518928715,0.00035826866743994545,-0.24107485911885246,0.018927986354600572,-0.219482421875,-0.280517578125,0.06103515625,-0.5034658193503829,-0.9684196328597235,0.0006533239382863694,0.059594326331967214,0.025560202234848797,0.09326171875,0.03173828125,0.0615234375,-1.9066240922279887,0.20138656040715777,0.0003553057622029966,0.9557636949904355,0.018849556021376116,1.0089437656005995,0.9359073143678217,0.0730364512327778,1.9032079225302878,1.5965804807065491,0.00046995687742199985,0.24940194041788322,0.021678488817765868,0.293529431747122,0.222801963910157,0.07072746783696499,-0.7744636130615472,0.796603468486592,0.00031144328202970027,0.924693409176858,0.01764775572217896,0.9725117403709334,0.9068055916218779,0.06570614874905545,2.4276314710897315,1.8244525469495385,0.20088282502531532,-0.10072035809750368,-0.4089021625290356,0.9670999129838163,0.48992296245892053,0.2628173552005957
UMAFall_Subject_02_ADL_Jogging_1_2016-06-13_20-40-29.csv,A,MA,0.0025868413878268885,-0.9373198962602459,0.0508610006569561,-0.802001953125,-1.1298828125,0.327880859375,3.3141032201255003,-0.23732446058423332,0.0009155474725316782,-0.31696257044057374,0.030258015013078406,-0.24658203125,-0.398193359375,0.151611328125,1.342705005300437,-0.18740628333630524,0.0006780810043460032,0.06071897412909836,0.026039988562708765,0.09375,-0.01220703125,0.10595703125,1.5980799023708734,-1.450661668798502,0.0024841718631606743,0.9921638688455089,0.04984146730545434,1.176957261527383,0.8445200408558675,0.3324372206715154,3.7652571431906736,-0.13095721990493644,0.0008716534461123193,0.32382434166397855,0.02952377763959618,0.40035050353953183,0.2572296953408784,0.14312080819865342,1.207190107367607,0.25881513470177575,0.002573381235465235,0.9396465219224952,0.05072850515701439,1.1337655103604583,0.807045823267537,0.3267196870929212,3.419080365980907,0.27215389858352673,0.0771976324408339,0.010654236888278037,0.05142691990721333,0.9800726705639166,0.26882790146216773,0.0741681412335205
UMAFall_Subject_02_ADL_Jogging_2_2016-06-13_20-41-08.csv,A,MA,0.06594749117483859,-0.10931196369108606,0.2568024360765267,0.2938232421875,-0.7220458984375,1.015869140625,-1.0753144453845978,-0.07986163656086744,0.14510063865512118,-0.30408415247182374,0.38092077740013236,0.4178466796875,-1.1865234375,1.6043701171875,-0.6310316769516437,-0.5265661899343137,0.029739839750560906,-0.0955990650614754,0.1724524274997627,0.33685302734375,-0.82763671875,1.16448974609375,4.708480954120777,-1.2341330899146383,0.10068106390963563,0.5013636699869937,0.3173027953069995,1.288440226143269,0.1537096583350734,1.1347305678081956,-0.04476051490690658,1.0051663468112129,0.11594831733848189,0.39941590958415657,0.3405118461059496,1.2446118230534027,0.022745813723423682,1.221866009329979,-0.40730895565431746,0.9551096279202124,0.026959055045785153,0.297808444270872,0.16419212845256972,0.9934108806282461,0.045074741824971606,0.9483361388032745,4.9515681721898765,1.6913201423609563,0.24081441062042977,0.25799953075666154,0.5301655988745192,0.6914230702216908,0.9752082121609212,0.5510868249427701
UMAFall_Subject_02_ADL_Jogging_3_2016-06-13_20-41-46.csv,A,MA,1.265228799783467,-0.4640472912397541,1.1248238972316809,1.161865234375,-2.903076171875,4.06494140625,-0.9857452642080422,-0.23168756668776658,2.993408776567281,-1.324338819159836,1.730147039001969,1.3125,-6.081787109375,7.394287109375,-0.357124104575798,-0.7231945630699572,0.5772642421266421,-0.2762231045081967,0.7597790745517029,1.420166015625,-2.778564453125,4.19873046875,2.3610407331157193,-1.2780433558526927,2.26640547172366,2.138430699304542,1.5054585586204823,6.974273263336413,0.756450175755531,6.217823087580882,1.1792931487637466,1.4352302383466344,2.496551374096846,1.6990248981236624,1.5800479024690506,6.686445607640112,0.1604005764244548,6.5260450312156575,0.5010857533375819,1.1799037468272346,0.6250555560024115,1.2202944670474172,0.7906045509623705,3.452067148419695,0.3197120994134927,3.1323550490062027,2.219491022736495,1.6801339059701654,0.3971417237536825,0.45140577568218365,0.5625200163993712,0.7557808440386802,0.9806226449996851,0.6407342185437159
UMAFall_Subject_02_ADL_LyingDown_OnABed_1_2016-06-13_20-32-16.csv,A,MA,0.01962853966514921,-0.9526407210553278,0.1401018902982726,-0.59375,-1.33154296875,0.73779296875,1.4289105217448643,-0.3555719927686668,0.08056703929692668,-0.18029985271516394,0.28384333583321397,0.6552734375,-0.500732421875,1.156005859375,1.6353172650892907,1.543685137695383,0.027169895400115048,0.11860031378073771,0.16483293178280561,0.765625,-0.24072265625,1.00634765625,5.540659383214415,1.5895524424958751,0.0209338952620663,1.0289728926680681,0.1446855046715679,1.4294028285377927,0.6251369803046687,0.804265848233124,1.2767254401852517,0.1746497496707328,0.029303217314627553,0.3517413681311882,0.17118182530463785,0.8568700174510955,0.008586672556186023,0.8482833448949094,1.9348348877661268,0.6956544399980398,0.022248182088830747,0.9724907031198756,0.149158245125205,1.3531275161120695,0.5984619792981304,0.7546655368139391,0.9090839213975173,0.316433117647535,-0.16231886150217475,0.023628581793337416,0.5330579321237391,0.957071218956329,0.281500330584383,0.046310212957679675
UMAFall_Subject_02_ADL_LyingDown_OnABed_2_2016-06-13_20-32-56.csv,A,MA,0.010340659084215841,-0.9393850858094263,0.1016890312876263,-0.63720703125,-1.204833984375,0.567626953125,2.6251299207439622,0.035953808672977663,0.007692780032183954,-0.28882636398565575,0.08770849464096368,-0.156982421875,-0.567626953125,0.41064453125,1.2750402560132592,-1.1137599628987793,0.004619520120933408,0.12731333247950818,0.06796705173047753,0.270263671875,-0.14599609375,0.416259765625,4.517221694495551,-1.475772484175681,0.009672889147206867,0.9974171517761549,0.09835084721143417,1.31150321348366,0.7715797848192602,0.5399234286643998,2.3112386485321794,0.6633102708902213,0.00744813449322229,0.32313120926251204,0.08630257524096421,0.6027122013861488,0.16234341927018314,0.44036878211596564,1.6847206374226689,1.0311958593595847,0.010270728896665153,0.950402860971146,0.10134460467467005,1.2048983200195769,0.6401002642205028,0.564798055799074,2.7625772875573738,-0.041041350467529374,-0.051218389378357876,-0.23257255879881517,0.00907807118878065,0.9510801250614759,0.2414973952028989,-0.04766477331634762
UMAFall_Subject_02_ADL_LyingDown_OnABed_3_2016-06-13_20-33-39.csv,A,MA,0.0051905401091758025,-0.9344702548668032,0.07204540310926022,-0.78662109375,-1.153076171875,0.366455078125,1.6334495792832762,-0.6503745464751196,0.007440870446585567,-0.2694512038934426,0.08626048021304754,-0.09716796875,-0.5126953125,0.41552734375,0.9795104906955823,-1.0741192776398956,0.0055444837267932985,0.10806624615778689,0.07446129012307871,0.254638671875,-0.08642578125,0.341064453125,0.33878694104738694,-0.30494575802490065,0.0061053407409118144,0.9845758465876664,0.07813667986875188,1.2500483741936748,0.8089358209750094,0.4411125532186654,3.1323395596274777,0.9874923732251094,0.0068581925856178024,0.3005145273594798,0.0828142052163625,0.5128182981210961,0.09837776672660598,0.41444053139449016,1.008490238136634,0.7712039732740367,0.005523752151515765,0.9434186831892641,0.07432194932532223,1.1711710786641805,0.79187033359083,0.37930074507335043,1.853614952521979,0.7895804930293575,0.1010162466258128,-0.30024942593849924,0.04575630773554554,0.9369026179546562,0.5268034693141891,0.22169542373109943
UMAFall_Subject_02_ADL_MakingACall_1_2017-04-26_19-40-37.csv,A,MA,0.0637624176799274,-0.8404521004098361,0.25251221293222115,-0.193603515625,-1.641845703125,1.4482421875,1.8088759405828743,0.18667667565596854,0.10870503565001359,0.3115874743852459,0.3297044671368794,1.296875,-0.85595703125,2.15283203125,2.855958265852707,-0.005952568073228147,0.0844735699273198,0.23460313140368852,0.29064337241251487,1.07177734375,-0.892822265625,1.964599609375,5.148871734373005,-1.02209883345802,0.05285833352642295,1.0291852060770674,0.22990940286648337,2.139398613347252,0.6080272148215268,1.5313713985257253,9.55753982335791,2.5387382691316684,0.09293942360197369,0.5007207806305504,0.30485967854403717,1.3716300936922168,0.19559382205443146,1.1760362716377852,0.6340494492200408,1.225152176254964,0.06479689584079498,0.9184060105153872,0.254552344009626,1.9607049720561815,0.2780551651278547,1.6826498069283269,5.0237954152216755,0.5446568484064677,0.55099924804061,-0.33125421614796535,-0.32427572401004584,0.7289869353780934,0.6265256946852951,0.03241120518575835
UMAFall_Subject_02_ADL_MakingACall_2_2017-04-26_19-41-16.csv,A,MA,0.0936368168051777,-0.8063084336577869,0.3060013346460726,0.026611328125,-1.571044921875,1.59765625,0.4868891526845309,0.14414064686056613,0.09164533126549641,0.4581759093237705,0.30272979910391445,1.2421875,-0.066162109375,1.308349609375,-0.2247515023219151,0.5743746020813214,0.07972075548328336,0.30501969134221313,0.2823486417238152,1.04638671875,-0.173583984375,1.219970703125,-0.2755774739852903,0.6245236405272189,0.07220892010833545,1.0689849823635469,0.2687171749411181,2.116091919823341,0.688621170332434,1.4274707494909071,6.1749456975563515,2.0008901981950187,0.10131552154732787,0.6098068311123446,0.31830099206148865,1.417625785104238,0.06513935409773809,1.3524864310065,0.03772392242827349,0.4738254886534214,0.09427848482140558,0.9060645734593984,0.3070480171266468,1.713130242563414,0.05560888935765613,1.657521353205758,1.277790360935069,-0.15979339565781037,0.12930240925988887,-0.0519958551439347,0.13485257324382646,0.8068058817893164,0.5567746442292877,0.10324852539743631
UMAFall_Subject_02_ADL_MakingACall_3_2017-04-26_19-41-56.csv,A,MA,0.11473780043138183,-0.8342645363729508,0.3387296863745217,0.257568359375,-1.6259765625,1.883544921875,2.604573703172421,1.40937370546539,0.06847728272604812,0.2409027599897541,0.26168164384619746,1.002685546875,-0.626220703125,1.62890625,3.155504608473139,0.6124199309467748,0.09204135559947116,0.3065885950307377,0.3033831827894736,1.48388671875,-0.241455078125,1.725341796875,3.7356483333526977,1.643444184058649,0.07005053769432805,1.024631588875138,0.26467062113942313,1.8697826913035547,0.3212067750876577,1.548575916215897,3.0707555046710286,0.5578144697087337,0.10274279177837722,0.4570113870522066,0.3205351646518323,1.4934732380254976,0.06545200252048558,1.428021235505012,1.2027288733767643,1.3915095591810382,0.07859659223607912,0.9571181189082348,0.28035083776596625,1.862134472610032,0.28290758167974417,1.5792268909302878,2.74050447764803,0.09495894318555327,0.36713544080924326,0.08640500989173694,-0.07390886542158835,0.908228871495647,0.5718724226230057,0.296248253172796
UMAFall_Subject_02_ADL_OpeningDoor_1_2017-04-26_19-45-05.csv,A,MA,0.0007281889029539349,-0.9311203253073771,0.026984975504045484,-0.90625,-0.968505859375,0.062255859375,-1.7426091462154152,-0.5023088781494952,0.0016551882842850815,0.1542208311987705,0.04068400526355636,0.2109375,0.103759765625,0.107177734375,-1.9538620247367438,0.0989735945758334,0.00026669538086229337,0.2366122886782787,0.01633081078398416,0.3134765625,0.2197265625,0.09375,8.917661879669451,2.7141350641241,0.0006506104818446516,0.974023194872174,0.025507067292118307,1.0273711922465123,0.9409886933903135,0.08638249885619875,-1.3768792385264577,0.4102629555382587,0.0007173418421365242,0.28452457743569554,0.026783238081615975,0.34276517765711373,0.24979929019683586,0.09296588746027787,-1.1542352970513372,0.31535308384651406,0.0007025100480629432,0.9608631622502675,0.02650490611307543,1.0074339458782247,0.9326795946581315,0.07475435122009311,-1.6671491462714079,0.4713164542602138,0.22897618190126398,0.0017553464820623094,0.04056626685420346,0.9681982200884803,0.11271667660136833,-0.10284992557379566
UMAFall_Subject_02_ADL_OpeningDoor_2_2017-04-26_19-45-44.csv,A,MA,0.00014682272092892172,-0.9575395427766393,0.012117042581790399,-0.906494140625,-0.967529296875,0.06103515625,13.438585746046597,3.663541179664174,0.0006539833675968192,0.18176869877049182,0.025573098513805854,0.218505859375,0.15625,0.062255859375,-1.6654040070363172,0.5481683894667738,0.00022304722520171622,0.24006227587090165,0.014934765656069606,0.315673828125,0.224853515625,0.0908203125,20.806979722474587,4.370982464616605,0.00017843481015498115,1.0041828973417999,0.013357949324465232,1.0320856003523995,0.9511227761507199,0.08096282420167955,7.392489170070187,-2.040582722420212,0.0005095437951582542,0.30171380242365964,0.022573076776510867,0.38212281984375523,0.27395167372892504,0.1081711461148302,3.0963884129290475,1.5601997531663938,0.0001496880319750578,0.9872833659349233,0.01223470604367174,1.0093724796984125,0.9377907937781486,0.07158168592026393,10.99610870056939,-3.000574179571519,0.00650995757593833,0.05633050127214757,0.32044962099967095,0.9339002126330979,0.5028258941075455,0.2129011733441269
UMAFall_Subject_02_ADL_OpeningDoor_3_2017-04-26_19-46-20.csv,A,MA,0.000665573963050634,-0.9303478803790983,0.025798720182416683,-0.906494140625,-0.96826171875,0.061767578125,-1.666761328733033,-0.5608011774644487,0.001184845882686761,0.17075835681352458,0.03442159035673339,0.208251953125,0.11669921875,0.091552734375,-1.3358340347942554,-0.795986080539692,0.0002638450737207964,0.23523949795081966,0.01624330858294567,0.312744140625,0.219482421875,0.09326171875,10.064792433399392,3.0349376238934433,0.0005881647752439232,0.9754713211841508,0.02425210867623521,1.022650816737605,0.9437588937605592,0.07889192297704573,-1.366553033322492,0.4962066252261267,0.000584326648862233,0.2921407746595344,0.024172849415454375,0.3483900405653738,0.25076760228178696,0.09762243828358685,-0.29291045259485404,0.008815862081968303,0.0006167531647106813,0.9597876536630704,0.024834515592430655,1.0030100937865032,0.9341459995187587,0.06886409426774454,-1.647251702793857,0.5070594041443514,0.15768504230410546,0.13277254965602975,0.06337435646558057,0.9739536243061248,0.09510152771120747,-0.09362869670823046
UMAFall_Subject_02_ADL_Sitting_GettingUpOnAChair_1_2016-06-13_20-34-55.csv,A,MA,0.0018170226141403282,-0.9445920850409836,0.042626548231593044,-0.85888671875,-1.021728515625,0.162841796875,-0.7434453086887309,-0.5251503386282965,0.001957541932173765,-0.2538542200307377,0.04424411748666443,-0.1708984375,-0.338134765625,0.167236328125,-0.3005679804591117,0.06605083543219405,0.0019719262266419627,0.07665215163934426,0.044406375968344486,0.215576171875,-0.003173828125,0.21875,1.364135791428132,0.6663435658922006,0.0018812117220154314,0.983043050085308,0.043372937668728774,1.0801555474730273,0.8910745189022335,0.18908102857079379,-0.5110799269738928,0.5787056070600481,0.002398429629641999,0.26799898678026274,0.048973764707667705,0.3933929792670774,0.17089861188607175,0.22249436738100564,0.3471603535479728,0.21047614311114568,0.0018268267400481813,0.9487147704329633,0.042741393754160396,1.0329985677500542,0.8699316646879838,0.1630669030620704,-0.7644194623098755,0.571289748281016,0.025297895325861786,0.019591162254850882,-0.3620789021958159,0.9644253469350839,0.33844117459648143,0.08829811238203313
UMAFall_Subject_02_ADL_Sitting_GettingUpOnAChair_2_2016-06-13_20-35-34.csv,A,MA,0.006049933980722897,-0.9700027215676229,0.07778132154137585,-0.802001953125,-1.204345703125,0.40234375,1.0093827818723966,-0.7462766988042653,0.0019205418115105135,-0.22004274462090165,0.043823986714019,-0.157958984375,-0.3134765625,0.155517578125,-1.5712981942827673,-0.0017214378295792756,0.0011912749113280917,0.12331102715163934,0.03451485059113094,0.15625,0.0341796875,0.1220703125,1.165514846296415,-1.5929243781030051,0.005972284132597877,1.0038261198832303,0.0772805546861426,1.2304835485143717,0.8333613192309506,0.3971222292834211,0.8119966560168774,0.6029038884324012,0.0015577674287589561,0.2552508412398196,0.03946856253727714,0.3196463752912215,0.18083092484283933,0.13881545044838214,-1.4574953619246263,-0.06749516259176279,0.005662183540748118,0.978603100830768,0.0752474819561965,1.2049711356128898,0.8140274508906489,0.39094368472224095,1.0047907156092988,0.7083647765568576,0.33953328457518367,0.6439262574207159,0.05507740518893027,0.993140730633125,0.2342559138343716,0.12422016464602091
UMAFall_Subject_02_ADL_Sitting_GettingUpOnAChair_3_2016-06-13_20-36-13.csv,A,MA,0.0006093921231441811,-0.9306920786372951,0.024685868895872008,-0.90673828125,-1.01318359375,0.1064453125,4.235092416157071,-2.118956744310238,0.0006156712933316258,-0.25459464651639346,0.024812724423803723,-0.1787109375,-0.319580078125,0.140869140625,0.2479703813365477,0.4295797278632322,0.0008007973595395115,0.12715324026639344,0.028298363195413113,0.15625,0.05078125,0.10546875,0.2892398166713126,-1.0478093179896477,0.0005783217366839606,0.9739599245730827,0.024048320870363498,1.0561572254225051,0.9410391443970525,0.11511808102545262,2.898442659309839,1.6700175969045103,0.0006736564664578626,0.28586188182845607,0.025954892919406596,0.32358949563597333,0.2047152260209314,0.11887426961504194,0.22148345866750985,-0.8298524226563885,0.0005764415698803058,0.9397743195377735,0.02400919761008905,1.0195555702319592,0.9116982752732732,0.10785729495868601,4.1406534583405366,2.0676145956077914,-0.027880496100801722,0.25585025801758876,-0.06466740886704876,0.9646064120651713,0.18136987615046413,-0.05458323838485826
UMAFall_Subject_02_ADL_Walking_1_2016-06-13_20-27-49.csv,A,MA,0.14940628295387726,-1.1379274462090163,0.3865310892462303,-0.374267578125,-1.9814453125,1.607177734375,-0.7487348143573884,-0.036313223141287904,0.035053222133813663,-0.3128441982581967,0.18722505744107454,0.08056640625,-0.76708984375,0.84765625,-0.4292292869623302,-0.21750648455247112,0.04200503523232508,0.07858126280737705,0.20495129966000478,0.6083984375,-0.326171875,0.9345703125,-0.27615110253962394,-0.06826231967953181,0.1403294626225036,1.2180510692608273,0.37460574291180265,2.0958055113910614,0.3790530677370362,1.7167524436540251,-0.5432614895971954,0.0599752583739895,0.03151535029320804,0.3858015154028871,0.1775256327779401,0.7854739632859399,0.06004171987297812,0.7254322434129618,-0.5487254892140472,0.1786960417019257,0.14062300230405875,1.1623293888739066,0.37499733639595195,1.9815232819492024,0.3744587170672606,1.6070645648819417,-0.7753736381198588,0.09096445318161137,0.1258085024555562,0.19236297954939457,-0.3500499050024317,0.9912535370068504,0.3225449245026667,0.21192042523906574
UMAFall_Subject_02_ADL_Walking_2_2016-06-13_20-28-31.csv,A,MA,0.03976543373097487,-0.8051077420594263,0.1994127220890755,-0.477783203125,-1.47216796875,0.994384765625,0.6331829489224052,-0.7000242157378012,0.018485936473627555,-0.5947585809426229,0.1359629967072937,-0.282958984375,-0.948486328125,0.66552734375,0.25933507629860664,-0.6577730987398972,0.02570049296962759,0.17584128457991804,0.16031373294146573,0.572021484375,-0.2001953125,0.772216796875,0.49117470384194384,0.05461447209076246,0.029274028332360362,1.0424192439634201,0.171096546816002,1.5998333970889953,0.7765566804541162,0.8232767166348791,1.3236238441887656,0.9501041245509115,0.018851506151664345,0.6399824401089858,0.1373007871487427,0.9630746104669566,0.29180116050259364,0.671273449964363,0.0036375512360051765,0.2193619529074275,0.036892204740230014,0.840966071833837,0.19207343580055525,1.4757857323129657,0.4924137261630464,0.9833720061499194,0.5219605144692849,0.606129184783049,-0.060842185625617516,0.36193600442722357,-0.1473677130625839,0.8701183102300074,0.3833618272232272,-0.05774216860112425
UMAFall_Subject_02_ADL_Walking_3_2016-06-13_20-29-14.csv,A,MA,0.08400596162009108,-0.9575835681352459,0.28983781951307025,-0.366943359375,-1.890380859375,1.5234375,0.8984911694289552,-0.9024481113335072,0.058101813975579106,-0.2949258773053279,0.24104317865390654,0.261962890625,-0.81005859375,1.072021484375,-0.2694918490304459,-0.1996886589530543,0.030441296035474772,0.14698066086065573,0.17447434205485565,0.49267578125,-0.303955078125,0.796630859375,-0.2486864681280303,0.013311612375593973,0.07067683475136279,1.0610151167366106,0.26585115149527333,1.9261791909117,0.6286885139327458,1.2974906769789543,1.0129450871044874,1.015156811082036,0.03389153713842493,0.4029146723809396,0.1840965429833622,0.8118534817094168,0.019871607172973274,0.7919818745364435,-0.2093131768107237,0.12944523564717067,0.07928171162363905,0.9864880467093416,0.2815700829698337,1.926178943355714,0.40719099369731343,1.5189879496584004,1.2037577590514834,0.9699570096991919,-0.1483192995778473,0.15687371896123292,0.3824506601481857,0.9549537119501934,0.09913911021357628,-0.1494689175302583
UMAFall_Subject_02_Fall_backwardFall_1_2016-06-13_20-51-32.csv,F,MA,0.0009377332984424027,-0.06311235271516394,0.030622431295414847,0.017578125,-0.134521484375,0.152099609375,0.4926560212636302,0.7731078077869826,0.0011080047146218722,-0.06509749615778689,0.033286704772654684,0.003662109375,-0.151611328125,0.1552734375,0.6534117991537953,-1.2223931995330548,0.00048790450304583773,1.0555640048668034,0.022088560456621834,1.128662109375,1.031494140625,0.09716796875,0.6936926630631306,1.2634802649465913,0.00048615491818484877,1.0604009353396329,0.02204892102087648,1.1315306942274754,1.0368270633462757,0.09470363088119971,0.535266950665318,1.2175013702487274,0.0004968757004980109,1.058080369797457,0.022290708837944363,1.131464847163611,1.0340667461217012,0.09739810104190982,0.7085892976426598,1.267780155989183,0.0004790340425942068,1.0578892300709812,0.021886846337337108,1.1287281199433117,1.031500641390388,0.09722747855292369,0.5214076252303714,1.2057745784611733,-0.23082274603370717,0.1571957018855375,0.013761075216890458,0.9924770943862143,0.9974382724341158,0.9881330351400897
UMAFall_Subject_02_Fall_backwardFall_2_2016-06-13_20-52-16.csv,F,MA,0.0002824237437847533,-0.006455718493852459,0.0168054676752762,0.0908203125,-0.023681640625,0.114501953125,23.853017275692828,4.670924439497823,0.001030334911711229,-0.6783907530737705,0.03209883037917782,-0.594482421875,-0.711669921875,0.1171875,0.1609923917187115,1.290700076989499,0.0007650639190048468,0.8707535540471312,0.027659788845991698,0.90380859375,0.791748046875,0.112060546875,1.611593348198368,-1.7214472426586958,0.0007014280234046689,1.1044551927303232,0.02648448646669723,1.1294979142148236,1.0190523564811507,0.11044555773367293,0.8066315100888715,-1.1901809945592736,0.0007090804054876577,1.1043071473408843,0.02662856371432109,1.1294972545781232,1.0189249567152356,0.11057229786288758,0.7891120318694731,-1.188221685323119,0.0007566583116110661,0.8709417258599332,0.027507422845680512,0.9038910253721358,0.7920805744187978,0.11181045095333808,1.6384805028265381,-1.7302358641045075,0.16649556798342008,-0.07526650698160486,0.15365777724079682,0.6974905754221811,0.999805604491626,0.6978842540217306
UMAFall_Subject_02_Fall_backwardFall_3_2016-06-13_20-52-55.csv,F,MA,0.0004954212024563648,-0.04876809042008197,0.022258059269764846,-0.03125,-0.092529296875,0.061279296875,-0.05398427006137796,-1.3289527781052783,0.0006401286099126431,-0.3124039446721312,0.025300763030245612,-0.28173828125,-0.395263671875,0.113525390625,3.9796151867746223,-2.062514648811195,0.0006344198529186145,1.0014568391393444,0.02518769248896402,1.076904296875,0.97607421875,0.100830078125,3.9835545250521527,2.332069358197376,0.0006255804246037343,1.050721647588087,0.025011605798183657,1.1251152297452796,1.029558470634357,0.09555675911092254,3.3559122294108343,2.145743798794402,0.000616281978398813,1.0493614727710672,0.024825027258772808,1.124580994036233,1.0289069636986183,0.09567403033761468,3.4062804129101636,2.1502750552818735,0.0006446252399881048,1.0028815427357036,0.025389471045850973,1.0774621722757087,0.9768265329102662,0.10063563936544251,3.9438928702118874,2.3262738914933623,0.001993536469852774,-0.1565497568226213,0.07067054340263453,0.9457040681328659,0.9986008251632635,0.9434352574869175
UMAFall_Subject_02_Fall_backwardFall_4_2016-06-13_20-58-40.csv,F,MA,6.263015048751415e-06,0.02382972592213115,0.002502601656027466,0.030517578125,0.018798828125,0.01171875,-0.04805523409168977,0.08772077450005737,1.8355299214847753e-05,-0.5770403752561475,0.004284308487357995,-0.5654296875,-0.58544921875,0.02001953125,-0.4113078756602264,0.24204470026931185,0.00038840627409721335,0.9547379290471312,0.019708025626561716,0.967529296875,0.906494140625,0.06103515625,1.987025311534179,-1.9263395646965784,0.00030271156419406543,1.1158747547500205,0.017398608110824998,1.1298689120137404,1.0707067612729262,0.05916215074081421,2.075139590525703,-1.9301083420886498,0.00030256589310482065,1.1156175847445498,0.01739442132135532,1.1296155608554137,1.0704555276686936,0.05916003318672014,2.077843653827691,-1.9306462318816935,0.00038853147693838333,0.9550384317874668,0.019711201813648587,0.9678131310938501,0.9067908021735527,0.061022328920297464,1.986551276317062,-1.9263647450907462,-0.07323028302753623,0.14577599937947605,-0.2102513131734937,0.9922779481841154,0.9999953336065162,0.9922798155788302
UMAFall_Subject_02_Fall_backwardFall_5_2016-06-13_20-59-19.csv,F,MA,0.0006535229787149065,0.013587826588114754,0.025564095499643762,0.03125,-0.031005859375,0.062255859375,-0.7924826541562147,-1.0964534113741136,0.0005122811416459214,-0.4430391905737705,0.02263362855677192,-0.36376953125,-0.46826171875,0.1044921875,6.370491797411633,2.6384741640394282,0.0007080890116144398,1.0077964907786885,0.026609941969392564,1.03125,0.968994140625,0.062255859375,-1.5837318368416584,-0.6570417611733043,0.0007691966838712365,1.1014575374982714,0.027734395321896536,1.12802438049482,1.0369131473746316,0.09111123312018843,-1.0209623100112046,-0.7599164511816742,0.0007694901282914084,1.101081731643592,0.027739685079167867,1.1275914333173709,1.0366256936573637,0.0909657396600072,-1.0211848458625048,-0.7602707031866062,0.0007076071331204587,1.0082071609165129,0.02660088594615711,1.0317233762011986,0.9694222916971916,0.062301084504006954,-1.5835657532080645,-0.6571491646463852,0.1644453220683441,-0.11553840711099901,-0.23603956392545378,0.9528994041944665,0.9999982553129363,0.9529836532592378
UMAFall_Subject_02_Fall_backwardFall_6_2016-06-13_20-59-59.csv,F,MA,0.0003671916781878862,-0.006471727715163934,0.019162246167604837,0.077392578125,-0.030029296875,0.107421875,12.040132580441831,3.458378456811798,0.0004650774874973817,-0.763031506147541,0.02156565527632726,-0.718994140625,-0.7802734375,0.061279296875,-0.005068737518699962,1.3445953044535797,0.0008576164154407104,0.7546066534323771,0.029285088619307786,0.821044921875,0.72509765625,0.095947265625,0.7431447146465024,1.5699417155613093,0.0008513750729451066,1.0735524805393037,0.029178332250920487,1.1288313527324774,1.0232563877740475,0.10557496495842988,-0.2799771833777127,0.21231657522562358,0.0008586973729113861,1.0733613887259645,0.02930353857320624,1.1288091492389574,1.0232186411030455,0.10559050813591186,-0.29108155270541847,0.20747663265646127,0.0008527677607900011,0.7548768283468633,0.029202187602814983,0.8210754479601622,0.7252556317283995,0.09581981623176272,0.7369256763096632,1.566003612396322,0.3313328662504103,-0.06111463878712731,-0.30152052540874735,0.8649379117562247,0.9998518558162133,0.863009763065855
UMAFall_Subject_02_Fall_forwardFall_1_2016-06-13_20-43-52.csv,F,MA,2.4215152354839723e-05,-0.29434954533811475,0.004920889386568217,-0.283203125,-0.302734375,0.01953125,-0.8537323094525457,0.4617122714825089,7.5522342014833875e-06,-0.578705334272541,0.002748132857320291,-0.5703125,-0.58349609375,0.01318359375,0.5893731924628818,0.8406749711065771,2.4678863462854602e-05,0.8875472272028688,0.004967782549876213,0.901611328125,0.87939453125,0.022216796875,0.42301994484585226,0.6384472338312617,1.127145654769705e-05,1.0996936089178821,0.003357298995874072,1.109155122700228,1.0930302567861794,0.016124865914048714,0.669675970844188,0.5564528625182652,1.4688970463317797e-05,1.0595551892102362,0.003832619269288015,1.0714818873082792,1.052083113012511,0.019398774295768195,1.1695581060106468,0.7419068396017463,1.6948435353871993e-05,0.9351006134308111,0.0041168477448008675,0.9460732732646941,0.9277762955681033,0.018296977696590888,-0.0009706297738309999,0.3322617296815004,0.391385796464501,0.5314819297340275,0.39235789518869674,0.9123750877166783,0.9352953529585547,0.911452004802489
UMAFall_Subject_02_Fall_forwardFall_2_2016-06-13_20-45-53.csv,F,MA,0.0006397195526810943,-0.05010486039959016,0.02529267784717732,-0.03125,-0.093017578125,0.061767578125,-1.1430091342462632,-0.9234838406142069,1.7217241349767464e-05,-0.7350273757684426,0.0041493663793123236,-0.72412109375,-0.744140625,0.02001953125,0.4254385537468792,0.7337787225252383,0.00047847934759379736,0.7647244813012295,0.02187417078642748,0.78125,0.71923828125,0.06201171875,0.05485967136455949,-1.3870053597360892,0.0002902803075206347,1.06226670550029,0.017037614490316263,1.0788784987563407,1.0254091678940935,0.053469330862247144,0.057611880435707086,-1.3559122677063942,0.0003017628039133841,1.0607825083272868,0.017371321305916374,1.075755403938169,1.0218282671400305,0.05392713679813843,0.11216363744857727,-1.3992555771146375,0.0004566307498349883,0.7667885967514262,0.021368920184112915,0.785313414980336,0.7200851064953823,0.06522830848495376,0.03304945116006497,-1.3567353601989567,-0.09853224210917429,0.2546520358842418,-0.5387478815730901,0.9897882148681894,0.9965156971596664,0.9864242476608494
UMAFall_Subject_02_Fall_forwardFall_2_2016-06-13_20-48-20.csv,F,MA,4.213787818867001e-06,0.13478163422131148,0.002052751280322826,0.13916015625,0.130615234375,0.008544921875,-0.5037411581617612,0.15768853414532688,4.6712778956512265e-06,-1.0269235079405739,0.002161313928065802,-1.023193359375,-1.03125,0.008056640625,-0.8462466553902979,-0.18111587162815068,5.468547018499322e-05,0.2951379994877049,0.007394962487057876,0.3359375,0.281982421875,0.053955078125,14.636387907748015,2.6879073264899955,6.836481057274357e-06,1.0769866400352024,0.00261466652888554,1.0901199319024208,1.0723541723492733,0.01776575955314752,9.520262547374914,2.0550210278290573,7.14615730590633e-06,1.0685175172087862,0.002673229751799559,1.0822666614472158,1.063821335629615,0.018445325817600944,10.632888747597262,2.219591919037489,4.2286402067465775e-05,0.324482462051507,0.006502799556150088,0.360436323581692,0.3139130117961257,0.04652331178556629,14.775005043369573,2.7016181451135037,-0.1280511732936489,-0.37861735842305333,0.1924966288158262,0.623528950763739,0.9953397354165527,0.6397072183993737
UMAFall_Subject_02_Fall_forwardFall_3_2016-06-13_20-47-36.csv,F,MA,0.0001653707418285432,0.019579277663934427,0.012859655587477575,0.03076171875,-0.02587890625,0.056640625,7.99453498756459,-3.028871543657449,0.0004520329295611772,-0.8363057120901639,0.021261066049499427,-0.7607421875,-0.890869140625,0.130126953125,4.8021713210938,0.9001782768101346,0.000945758591584169,0.6741563140368853,0.030753188315753036,0.831787109375,0.6142578125,0.217529296875,12.81840878104986,2.818848396660692,0.00026466964456796615,1.0749672245228905,0.016268670645383603,1.127277030212966,1.0270861458627032,0.1001908843502628,4.6096424020193805,-0.00467002748979906,0.00026479283671996086,1.074713173254118,0.01627245638248758,1.1272082643259422,1.026795941059054,0.10041232326688831,4.62392441056912,-0.001135450422447401,0.0009434109832635511,0.6745628604797629,0.030714996064846747,0.8318802960783955,0.6148027147028398,0.21707758137555577,12.793924610266668,2.8193385978594763,0.2990663844733091,0.1590984535777987,0.6417181745850666,0.6004199001294962,0.9999941381225076,0.6013146932979299
UMAFall_Subject_02_Fall_forwardFall_4_2016-06-13_20-53-39.csv,F,MA,4.3921783322193585e-06,-0.04046730917008197,0.00209575245012844,-0.03466796875,-0.044677734375,0.010009765625,0.457071403964731,0.26833895476266795,0.0007663476988266075,-0.6345094774590164,0.02768298572817982,-0.593994140625,-0.656005859375,0.06201171875,-1.481299347272263,0.7427099826432153,0.0008361169223576947,0.8781858350409836,0.02891568644105989,0.90625,0.843994140625,0.062255859375,-1.9912539177993163,-0.2323684377845884,0.0008275620970522248,1.084535273904396,0.028767379043844517,1.1193111749085582,1.0334071226589556,0.08590405224960262,-1.0390241104768871,-0.2616593728569557,0.0008289143976988061,1.0837774249928924,0.028790873513994085,1.1186208000381337,1.0328254514219772,0.08579534861615645,-1.0403024871568927,-0.2607470327788026,0.0008334690996118884,0.8791216574338964,0.02886986490463522,0.9072110900545017,0.8449089426716675,0.06230214738283424,-1.9910207258655812,-0.2326586390438532,0.14767191227578477,0.15572030444008444,-0.031258015657743735,0.8303041351259768,0.9999963446658404,0.830619155418666
UMAFall_Subject_02_Fall_forwardFall_5_2016-06-13_20-54-39.csv,F,MA,7.403255160389052e-06,0.018026383196721313,0.002720892346343209,0.0263671875,0.01220703125,0.01416015625,0.8531195718456628,0.7244376984110314,4.6787691898033285e-06,-0.9129058337602459,0.002163046275465074,-0.907958984375,-0.917724609375,0.009765625,0.1612330335036254,0.2411592090820458,1.7919501320260467e-05,0.5133877113217213,0.004233143196285765,0.524169921875,0.50439453125,0.019775390625,-0.1415905558302244,0.36282100892225916,7.524043770978026e-06,1.0475261633674786,0.0027429990468423476,1.0542340752129569,1.0424676612942774,0.011766413918679497,-0.32003323879955925,0.21306145405160024,7.501017437421032e-06,1.0473675826598632,0.0027387985390351427,1.05409554717811,1.042284680458174,0.01181086671993592,-0.28054988829599203,0.22747250428719135,1.7872022497370223e-05,0.5137112235664248,0.004227531489814147,0.5243120431674082,0.5047725357836634,0.01953950738374477,-0.18084643450812177,0.35332701370156455,-0.1469541298519259,-0.04326593827468368,0.04712669176997873,0.7268688308240759,0.9998380830786443,0.7284154512613397
UMAFall_Subject_02_Fall_forwardFall_6_2016-06-13_20-55-19.csv,F,MA,0.0008868478360723274,0.0033499295594262295,0.02977999053177028,0.03125,-0.031005859375,0.062255859375,-2.0035631157206257,-0.23406275654860226,6.04531152652261e-06,-0.9770747950819673,0.0024587215227680034,-0.9697265625,-0.983154296875,0.013427734375,0.5963702727550295,0.3743442473446641,1.8238695592828143e-05,0.32205750512295084,0.004270678586925987,0.335205078125,0.31298828125,0.022216796875,0.5613040658555892,0.40184218390365606,6.568113368465664e-06,1.0292216227007478,0.0025628330746394045,1.0352673165098982,1.0216860453576102,0.013581271152288021,0.2288775998473751,-0.32901438911346453,6.5747040272080485e-06,1.0287923069196891,0.0025641185673069113,1.0348526995417466,1.021258881809268,0.013593817732478586,0.2292424586325863,-0.3175960580840945,1.792987809339949e-05,0.32342676409961263,0.004234368677075662,0.3363184875454364,0.3144963394704034,0.02182214807503302,0.47406842818713946,0.3733786319470205,0.09935813559284844,0.021265549378383965,0.10736792829263293,0.4244118911537889,0.9998880277785468,0.4264771611855973
UMAFall_Subject_02_Fall_lateralFall_1_2016-06-13_20-49-17.csv,F,MA,9.047919935216018e-06,0.20850409836065573,0.0030079760529658508,0.216552734375,0.20263671875,0.013916015625,-0.3606825917487222,0.08181693307198422,0.0015421775846533434,0.15179943647540983,0.03927056893722503,0.205322265625,0.09521484375,0.110107421875,-1.7308118731114273,0.11130727320844842,0.0003519001228561818,-0.9409860079405737,0.018759001115629313,-0.871337890625,-0.95947265625,0.088134765625,9.386339780064313,3.146578747611168,0.0003051300549342327,0.9764955166364873,0.017467972261663134,0.9928869050133571,0.90719584730239,0.08569105771096708,8.261106160839194,-2.865937754103262,0.0003165420344216229,0.9539650991974157,0.0177916282116512,0.9702685667157053,0.8825067311319297,0.0877618355837756,8.377967914502069,-2.882142619822977,0.0003396902403396466,0.9638202817367015,0.01843068746248079,0.9824910376530687,0.8963347000470091,0.08615633760605956,9.310053133869753,-3.1298889943788932,-0.12345246381104605,-0.19505751306407063,0.26296093540245224,0.9399327727817344,0.999333232806206,0.9372196718118486
UMAFall_Subject_02_Fall_lateralFall_2_2016-06-13_20-50-00.csv,F,MA,5.313086379421212e-06,0.20932056864754098,0.0023050133143696183,0.21533203125,0.2041015625,0.01123046875,0.16105116913586626,0.24004992068306374,0.0003082011566787469,0.2501640945184426,0.01755565882212191,0.318359375,0.2392578125,0.0791015625,10.908831024656196,3.500323466404511,0.00010892722776027326,-0.8525550717213115,0.010436820768810456,-0.84375,-0.905517578125,0.061767578125,21.32116283052372,-4.450731062414576,0.00015666307163096388,0.9129670017799891,0.012516511959446365,0.9817195679950964,0.9032942484626618,0.07842531953243459,18.424768164707054,4.027226046066683,0.0001651124183345341,0.8886394707983587,0.012849607711309092,0.9598514343083289,0.8791116093093453,0.08073982499898358,18.85375043894716,4.06906168434752,0.00010254060310650436,0.8778819730972679,0.010126233411614822,0.9298170624539174,0.8698955215004666,0.059921540953450814,21.288688991123173,4.445185898999039,0.031755464983932766,0.0731526993111868,-0.3365490824007241,0.9175844937414633,0.9991138635565678,0.9175061561029254
UMAFall_Subject_02_Fall_lateralFall_3_2016-06-13_20-50-52.csv,F,MA,5.739406158363883e-05,0.21279056736680327,0.007575886851295947,0.21875,0.156494140625,0.062255859375,53.03540970625876,-7.036231005218776,4.41784415740133e-06,0.30652856045081966,0.0021018668267521923,0.310791015625,0.30224609375,0.008544921875,-0.5843411652742927,0.07857787964677679,1.3529016671936369e-05,-0.8895043545081968,0.0036781811635557553,-0.880615234375,-0.89892578125,0.018310546875,0.29932911531691,0.20312133161449358,1.0536337885140526e-05,0.9646353315298333,0.003245972563830527,0.9722751652213897,0.9565345565168956,0.01574060870449412,0.29268693273736446,-0.27458667955516475,1.1216589679853674e-05,0.9408423752148556,0.0033491177464899133,0.9488455584303759,0.9317558425257507,0.017089715904625158,0.630625352716808,-0.32634667914374327,1.2706533799728476e-05,0.9146338526559162,0.003564622532573186,0.923622576244838,0.9059258900872539,0.01769668615758413,0.05245503463964862,-0.1811694148568789,-0.024672301462275323,0.22358943591495758,0.2825022228066151,0.9804760414384716,0.8981782692912198,0.8801271505201284
UMAFall_Subject_02_Fall_lateralFall_4_2016-06-13_20-56-03.csv,F,MA,0.00012384675891021561,0.2628874231557377,0.011128645870464906,0.28125,0.185546875,0.095703125,40.038069033314905,-5.713399408675561,0.0014559427897135417,0.16650390625,0.038156818390866154,0.216796875,0.11376953125,0.10302734375,-1.748691289698984,-0.350667601335355,0.001092132616564224,-0.8870349321209017,0.03304742980269758,-0.8544921875,-0.950439453125,0.095947265625,-0.7597646819488681,-1.063843791640197,0.0009369062927297321,0.9409414922523123,0.03060892505021586,1.004271830332187,0.8976883128045061,0.1065835175276808,-0.6973784068394449,0.9604186155588861,0.0010025487407159801,0.9033685359597647,0.03166305008548576,0.9697670058991442,0.8698675994317047,0.09989940646743956,-0.6649315304468262,1.0106090357463136,0.001026364691894258,0.9252714597902287,0.03203692700454053,0.9853857089308444,0.8744052500533153,0.11098045887752916,-0.757132102263697,0.9871923341978233,-0.21076602459859967,-0.07095879058116562,0.23381673415150625,0.9785597904380974,0.9956949781744119,0.9699789058770859
UMAFall_Subject_02_Fall_lateralFall_5_2016-06-13_20-56-57.csv,F,MA,0.00040183380001881073,0.20323706454918034,0.02004579257646878,0.21435546875,0.115478515625,0.098876953125,14.832842834793764,-3.9275663353539145,0.0013272283181466691,0.38436139216188525,0.03643114489206548,0.4609375,0.35595703125,0.10498046875,-0.25737853089087137,1.2729520991329677,0.0007454387477186861,-0.8104308081454918,0.027302724181273306,-0.76611328125,-0.9375,0.17138671875,8.878568441604461,-2.8218519348474653,0.0010272212398316413,0.9204676163304651,0.03205029235173435,1.063013513674745,0.8919280374712145,0.17108547620353043,6.775274033568799,2.499930046924376,0.0011531225887154667,0.8974609989038532,0.033957658763752646,1.0427548764283308,0.8755336905009478,0.167221185927383,6.038502028399739,2.4176352748823136,0.0006960323457520418,0.8357913866626934,0.026382424940707055,0.9599824206411612,0.7747676085631064,0.1852148120780548,9.263709240016473,2.61317427453606,-0.5610691182182622,0.12164536467509668,-0.369588676461602,0.8782007176474427,0.9947872267964448,0.8448051035183785
UMAFall_Subject_02_Fall_lateralFall_6_2016-06-13_20-57-48.csv,F,MA,6.245361651227774e-06,0.20806384477459017,0.0024990721580674244,0.21435546875,0.20263671875,0.01171875,-0.41193455595764483,0.034391970610814525,1.4999948564122933e-05,0.11710745389344263,0.0038729767058585485,0.123779296875,0.107421875,0.016357421875,-0.4281107292919035,-0.28590311485623837,9.438274988059788e-05,-0.9448802510245902,0.009715078480413726,-0.873291015625,-0.95361328125,0.080322265625,51.194617935495614,6.849595150113042,8.981428082786776e-05,0.9745916060784849,0.00947703966583805,0.9829812552390802,0.904645980119384,0.07833527511969618,51.53651308055078,-6.887397942740209,9.272580150513993e-05,0.9521182848610528,0.009629423736919045,0.9606681384177476,0.88115117215562,0.07951696626212756,51.22333645851081,-6.852195374334686,9.112362186121317e-05,0.9675218865519487,0.009545869361206091,0.9760876836415716,0.8969917274569937,0.07909595618457788,51.77255555080817,-6.9103637694192335,0.43996399382436524,-0.09847848996033559,0.03966670018854225,0.9988075836738919,0.9984417856151168,0.9984593162837321
UMAFall_Subject_03_ADL_Aplausing_1_2017-04-14_23-57-50.csv,A,MA,0.002132857171564154,0.857513928022541,0.04618286664515483,0.967041015625,0.73095703125,0.236083984375,0.6413458896737962,-0.43256601856737853,0.0025391210949486072,-0.5773965804303278,0.050389692348223436,-0.470947265625,-0.72265625,0.251708984375,0.4251544444972004,-0.5580932221035525,0.001840291616043758,0.14236200051229508,0.04289862021142123,0.25244140625,0.04345703125,0.208984375,-0.25961675072506996,0.1390475070125595,0.0013213669773407362,1.0459874249585528,0.036350611787709104,1.1533203383404553,0.94058907525793,0.21273126308252532,1.545573019444669,0.02588732501513663,0.002759318638226939,0.5960262455932949,0.052529216996134054,0.7398226758136721,0.47890017880547736,0.26092249700819475,0.5123884820820268,0.388717661569481,0.0017972388787117612,0.8704810826187794,0.042393854256386754,0.9703107075206276,0.7597105501507636,0.21060015736986404,0.31655849843757844,-0.41284812353993106,0.37123930078133544,-0.4654586748099798,-0.28797371385817927,0.6792522535944475,0.3874687241544842,-0.3965432981615415
UMAFall_Subject_03_ADL_Aplausing_2_2017-04-14_23-58-27.csv,A,MA,0.004622471593116803,0.8729788358094263,0.067988760785271,1.025634765625,0.659423828125,0.3662109375,1.5927465691116511,-0.9132640744564838,0.0020556427416254263,-0.5541832095286885,0.045339196526023993,-0.47021484375,-0.691650390625,0.221435546875,0.5849477474392155,-0.26074380495428684,0.0019071826517907647,0.15150726818647542,0.04367130238258031,0.26220703125,0.0615234375,0.20068359375,-0.21788186412907162,0.2748559141646745,0.0037286452913862307,1.0473502586347467,0.06106263416678182,1.1777668405995676,0.894567663792573,0.2831991768069946,0.456223803605059,-0.5137986480030869,0.0018350308796175581,0.5763387846339775,0.04283726041214071,0.7043325439493233,0.4984180339013597,0.20591451004796363,0.2876142852806147,0.1680015837682101,0.00453678557653422,0.8871339801713793,0.06735566476944772,1.0322250034172533,0.6859476162592443,0.34627738715800904,1.5031483717024336,-0.9056902676311722,-0.018552962742427372,0.06335434202157181,0.2342851739729045,0.9155859229567754,0.4057156691553437,0.02369383260660211
UMAFall_Subject_03_ADL_Aplausing_3_2017-04-14_23-59-06.csv,A,MA,0.036528526075550766,0.652251696977459,0.19112437331630616,1.015380859375,0.349853515625,0.66552734375,-1.202766732011249,0.0753991276178018,0.013293266035819963,-0.5681312435963115,0.1152964268128894,-0.354248046875,-0.88037109375,0.526123046875,-0.22339369505995332,-0.6144315119065439,0.11894046390642883,-0.3612040535348361,0.34487746216073445,0.214599609375,-0.84326171875,1.057861328125,-1.6396835549523887,0.23063035645297242,0.0073892774613554535,1.018528975700666,0.08596090658756138,1.2267524669320005,0.862856972117168,0.3638954948148324,0.2257742547578605,0.6317202151339228,0.024538157080513934,0.7477777409816158,0.15664659932636243,1.0206170566621156,0.38006799102163924,0.6405490656404763,-0.6962528197639104,-0.370082756732127,0.006409570714909693,0.8381625538819285,0.08005979462195549,1.0158393633639764,0.6158788786871089,0.3999604846768675,0.41817221353742706,-0.5136807406528783,-0.32773405783205123,0.8820519495325869,-0.21018152363890288,0.6281350955603433,0.20347612251876054,0.020744315659947277
UMAFall_Subject_03_ADL_HandsUp_1_2017-04-14_23-52-34.csv,A,MA,0.021184192426869128,0.800140881147541,0.14554790423386085,1.044189453125,0.41455078125,0.629638671875,0.05617024974408169,-0.9099736588366714,0.01511365650781517,-0.6538646260245902,0.1229376122584751,-0.41650390625,-1.0849609375,0.66845703125,1.3310205649226985,-0.626547546472668,0.026808817432226385,0.11242475665983606,0.1637339837426134,0.378662109375,-0.45556640625,0.834228515625,1.9715098182111834,-1.2695259581543246,0.018662118997589,1.0602450910011247,0.13660936643432983,1.3782762379604363,0.7087558766950623,0.669520361265374,0.045957719664495134,-0.13848304739981504,0.015356125203024682,0.682868296159366,0.12391983377581121,1.1346298898219813,0.42374718240346937,0.710882707418512,1.9919009044873972,0.8145744149975742,0.020388006424828468,0.8246315649961186,0.1427865764868269,1.0455825000797219,0.47998847838322717,0.5655940216964948,-0.1877209388278427,-0.8038377869723842,-0.025720230247906487,0.1665346139545896,0.19479803799769974,0.8190446564551039,0.6269770051744358,0.08736432564661832
UMAFall_Subject_03_ADL_HandsUp_2_2017-04-14_23-53-12.csv,A,MA,0.0005018261612438766,0.8766089267418032,0.02240147676480005,0.8935546875,0.807373046875,0.086181640625,5.254518902262886,-2.581978534600115,0.0010207563150124472,-0.5688156378073771,0.03194927722206634,-0.536376953125,-0.6337890625,0.097412109375,-0.010061954959216468,-1.3504491915820624,0.00011221333279635737,0.10795818391393443,0.01059307947654304,0.155517578125,0.09521484375,0.060302734375,12.072435992923426,2.966455356456317,0.0003909493297508229,1.0511293285248187,0.01977243863945019,1.0923180334321325,0.9871120246033457,0.10520600882878683,2.7546354733066067,-0.20012164608448368,0.0009697853341882166,0.5791085463444191,0.031141376562191604,0.6439832727676653,0.5466008180215063,0.09738245474615903,-0.005767854595255528,1.3506760994616502,0.0005014738971378311,0.8832943451515239,0.022393612864784262,0.9006149111943093,0.8141695988178327,0.08644531237647657,5.256070880785167,-2.581936818417651,0.3941883784918967,0.08353720146292302,0.17136427412512625,0.567070409773651,0.5291723800370217,-0.39618881644691695
UMAFall_Subject_03_ADL_HandsUp_3_2017-04-14_23-54-54.csv,A,MA,0.0007640896273441001,0.8690765881147541,0.027642171176376507,0.891357421875,0.80908203125,0.082275390625,0.8483660340248882,-1.646714108505582,0.0013651725372981506,-0.5829717917520492,0.03694824132889346,-0.5439453125,-0.6494140625,0.10546875,-1.4554437997908676,-0.6902881051266039,0.0004895634989920861,0.13852779200819673,0.022126081871675474,0.155517578125,0.094970703125,0.060546875,-0.048233421937608156,-1.3380683217052451,0.0005711525155080708,1.0565766796036646,0.02389879736530838,1.1024405044280294,0.9970476557056377,0.10539284872239174,0.6859978604500401,0.07642388543218463,0.001328649609861375,0.5996361573454717,0.036450646220079215,0.6642148011529235,0.555624854878427,0.10858994627449647,-1.445328082493665,0.6302300028894455,0.0007465187232474582,0.8803311228692292,0.02732249482107112,0.9028432875282782,0.8173895576955297,0.08545372983274857,0.8538549766664918,-1.6328560446553553,0.38915745996666146,-0.040129375779235706,-0.03886990019842625,0.6005700783457703,0.5120347547967371,-0.37114402680897446
UMAFall_Subject_03_ADL_MakingACall_1_2017-04-14_23-49-17.csv,A,MA,0.08993863365689263,0.7139112128586066,0.2998977053211522,1.1494140625,-0.392822265625,1.542236328125,4.6996841204508355,-2.0252382096675947,0.047553804533077705,-0.6933153496413934,0.21806834830639155,-0.2841796875,-1.43505859375,1.15087890625,2.8758237556824735,-1.443429481925976,0.07405840184519198,-0.10857453893442623,0.2721367337299248,0.25830078125,-0.923095703125,1.181396484375,0.4006457816029396,-1.109574990516201,0.056754957135196855,1.074431044727307,0.2382329891832717,2.0240056775639177,0.539338027641715,1.4846676499222027,4.691498045245134,1.4465932480615773,0.069920257080254,0.7371018551369417,0.2644243882100401,1.7063114735075673,0.31245422027956,1.3938572532280074,3.2221322354604993,1.6482045002980392,0.03467467315466789,0.8053942972050895,0.1862113668782545,1.4273071902415564,0.2678339494018812,1.159473240839675,2.165634050187208,0.03775940062142309,-0.08560676600785672,0.1924986128140923,0.7383252121896559,0.8301856027119512,0.8183277334534569,0.3806739281385984
UMAFall_Subject_03_ADL_MakingACall_2_2017-04-14_23-49-56.csv,A,MA,0.00027331729404261857,0.7011998911372951,0.016532310608097664,0.71875,0.6572265625,0.0615234375,1.9127290591024124,-1.6976497069593761,0.0006689780071133473,-0.685851050204918,0.02586460916219975,-0.62255859375,-0.71826171875,0.095703125,-0.9015148859636635,0.4254606454330789,0.001365421215693156,-0.321533203125,0.03695160640206534,-0.289306640625,-0.403076171875,0.11376953125,-0.10030820628159987,-1.2984667379327728,0.0005446404587207603,1.0330492361363495,0.02333753326126736,1.072537802805836,0.9850636752600636,0.08747412754577255,-1.4450502215510883,0.027811308789010204,0.0008252510926812409,0.7582641952569321,0.02872718386269773,0.8085605043220174,0.719269647581176,0.08929085674084147,-1.4803918663595725,0.0011408725839967692,0.00036776347507632887,0.7722143662359117,0.019177160245362944,0.8217836176904184,0.7271886608998106,0.09459495679060781,1.4638541542788044,0.6778976400392419,-0.1101280015569232,0.2486049705044577,0.005746933875213224,0.6838141044634369,0.8830296459510123,0.459435130850377
UMAFall_Subject_03_ADL_MakingACall_3_2017-04-14_23-50-36.csv,A,MA,0.0005540793710719041,0.6385758196721312,0.02353889060835077,0.656005859375,0.59423828125,0.061767578125,-0.3128324931406774,-1.27260676689909,0.0008280492219768586,-0.8064445120389344,0.02877584441813756,-0.739013671875,-0.829345703125,0.09033203125,0.8772553305337096,1.642742943979808,0.001509750573361506,-0.22956422899590165,0.0388555089190903,-0.169921875,-0.271728515625,0.101806640625,-1.6410679000638866,0.5702284549789565,0.0006828045314990505,1.0549902482955782,0.026130528725975877,1.0834399531545449,0.986456653038992,0.0969833001155529,0.2108204205924653,-1.0717187752893766,0.0006013410833911798,0.8395001360380376,0.02452225689840109,0.8650125946936129,0.7873865590813295,0.07762603561228343,0.21476063184631888,-1.2686687657505846,0.0007180234947339471,0.6795605615052285,0.026795960418203844,0.7073336634202212,0.6210704295260737,0.08626323389414747,-0.039881700114388074,-1.0481513611574862,-0.1305469906241739,-0.12713082124595376,-0.4385245246113357,0.5660051701298263,0.8471303148328366,0.11739402310404137
UMAFall_Subject_03_ADL_OpeningDoor_1_2017-04-14_23-55-44.csv,A,MA,0.008001378227452763,0.8360735783811475,0.08945042329387136,0.962158203125,0.531982421875,0.43017578125,2.6614889600370004,-1.4655751473908012,0.013685086776650016,-0.6299068263319673,0.11698327562797178,-0.47119140625,-1.0712890625,0.60009765625,3.635855729898517,-1.5856081189158167,0.00831073356456444,0.13583424052254098,0.09116322484732776,0.390380859375,-0.169921875,0.560302734375,3.1868215586875053,-0.7854597580879669,0.007450930058500108,1.0660343506547936,0.08631877002425434,1.3135497572687767,0.8344415488117375,0.47910820845703916,1.564309363695254,0.5266015588816975,0.013961192577449537,0.6504894029209618,0.1181574905685185,1.0725386364075253,0.4754804615655589,0.5970581748419664,2.7260314365942397,1.39286291402835,0.007420048727759948,0.8521832320011972,0.08613970471135798,0.9835488015979771,0.5599660489315073,0.42358275266646983,2.4700655535884044,-1.3961397738396237,0.2872606563063914,-0.22441784097192058,0.20283999182666157,0.5217665954120343,0.6705852566355697,-0.2596397486674083
UMAFall_Subject_03_ADL_OpeningDoor_2_2017-04-14_23-56-22.csv,A,MA,0.0004919698655279607,0.8666231749487705,0.022180393718957307,0.90576171875,0.84423828125,0.0615234375,-1.0946578014622652,0.8470998791426896,0.0010643632034134996,-0.5576932313012295,0.032624579743094004,-0.489990234375,-0.593017578125,0.10302734375,-0.495834686418374,0.9036652243408829,0.0015074402582449993,0.07777279713114754,0.03882576796722763,0.142822265625,0.035888671875,0.10693359375,-1.4496286185191416,0.6235310349205074,0.000556217737854989,1.0346847460418804,0.023584268864117647,1.0818466690117978,0.9921194338542053,0.08972723515759251,-0.18229319351358741,0.20549318145576023,0.0009440191672557274,0.5645099179985941,0.030724894910409823,0.6027552682020597,0.5006658174064805,0.10208945079557918,-0.9244514539168787,-0.6011258999181539,0.0004686259189046676,0.8709707370019544,0.021647769374803207,0.9108517653882517,0.846103635045124,0.06474813034312776,-1.0967883440186252,0.775238865447526,0.05826136527917968,-0.21461999430780782,0.2932590231570425,0.6851093764780618,0.6239026435912524,-0.12541543776973624
UMAFall_Subject_03_ADL_OpeningDoor_3_2017-04-14_23-57-06.csv,A,MA,0.006127649871377998,0.817963146772541,0.0782793067890742,0.906005859375,0.572265625,0.333740234375,1.3363981923704555,-1.233243630330444,0.01775408282957442,-0.6012863409323771,0.13324444765007817,-0.29345703125,-0.927734375,0.63427734375,0.7515524773399083,-0.323371448391267,0.057384177049001055,-0.0498046875,0.2395499468774749,0.325927734375,-0.572509765625,0.8984375,-1.0271146925189596,-0.5038817687865281,0.00623854488863391,1.0520869204714842,0.07898445979199901,1.3018634407017422,0.8709826890427396,0.43088075165900264,0.9278294137231313,0.36075734076531846,0.016459576516405255,0.6494170527650945,0.1282948810997744,0.9921990641723507,0.35156699283696,0.6406320713353907,0.7909919221823203,0.41400683684422024,0.0026753894951374963,0.8552095270481593,0.051724167418504635,0.9414573117412628,0.7330029026744247,0.2084544090668381,-0.5462712006888006,-0.5059859878639253,0.08633571725286716,0.761433253266519,0.015018106292745357,0.2720899787716094,0.7412074219792764,-0.29713302996077195
UMAFall_Subject_03_ADL_Sitting_GettingUpOnAChair_1_2017-04-14_23-46-20.csv,A,MA,0.0018335394194868744,0.8736512231045082,0.042819848429050685,0.967529296875,0.725830078125,0.24169921875,2.6271475916662705,-0.9248236998723467,0.0020937414442906616,-0.5540871542008197,0.04575741955454505,-0.437255859375,-0.65478515625,0.217529296875,0.20668994466931645,0.09761278419701531,0.0021283274791279783,0.08005811347336066,0.046133799747343364,0.203369140625,0.031494140625,0.171875,-0.23922131600900043,0.909360013337074,0.0013246041954221924,1.0398758494732543,0.03639511224631946,1.1350144656767738,0.9831584194296792,0.1518560462470946,0.05476020350992261,0.5998420204047357,0.002141091439808599,0.561666038747145,0.046271929285567934,0.6828073828743334,0.4553128402593489,0.22749454261498447,0.5755791249886579,0.21319522683669748,0.0017006190446495167,0.8785783626870921,0.04123856259194198,0.9736918562545503,0.7512067781731626,0.22248507808138773,1.6019554464612291,-0.5983181387002526,0.26880839720731575,-0.217296841927699,-0.06881415262417043,0.7605974603502791,0.4133036168439186,-0.2686489543247889
UMAFall_Subject_03_ADL_Sitting_GettingUpOnAChair_2_2017-04-14_23-47-37.csv,A,MA,0.005027395747398419,0.8622366483094263,0.07090413067937874,1.02734375,0.682373046875,0.344970703125,0.27045989163610873,0.04206795407565302,0.009854722869852202,-0.5315061475409836,0.09927095682953903,-0.255859375,-0.688232421875,0.432373046875,0.630389720288993,1.0108173941595004,0.013730734651857387,0.07876937115778689,0.11717821748028678,0.4951171875,-0.136474609375,0.631591796875,2.3647620280386628,0.805532771384569,0.0053239868758643534,1.0271623620891668,0.0729656554542228,1.2527057688450136,0.8460486853548811,0.4066570834901325,1.4664446452502622,-0.3219162501707378,0.01004180977787413,0.5495680298544415,0.10020883083777662,0.7213513113761791,0.2672375370042203,0.4541137743719588,0.9971479629622779,-1.1600624455149555,0.004906580041160195,0.8736596175184748,0.07004698452581806,1.046712891282824,0.699924773193109,0.3467881180897151,0.2803056844788392,-0.022340409842489792,0.05131745989062349,-0.08708382859770473,-0.3692595123861127,0.7548321880453135,0.5750139960084358,-0.0405280285058335
UMAFall_Subject_03_ADL_Sitting_GettingUpOnAChair_3_2017-04-14_23-48-14.csv,A,MA,0.0014468095993083682,0.8649382044057377,0.03803695044701097,0.94189453125,0.785400390625,0.156494140625,-0.639606784327384,-0.7064027986154775,0.0019049568580148,-0.5762118980532787,0.043645811460148155,-0.4697265625,-0.6474609375,0.177734375,-0.4573533800092471,0.2247938057931372,0.0020112249369178313,0.12054543417008197,0.04484668256312647,0.21337890625,0.041748046875,0.171630859375,-0.48024537254539723,-0.015105562284266724,0.0014350429455690095,1.0481092531073228,0.03788196068802418,1.142012288109295,0.9600919088931987,0.18192037921609616,-0.13975608694693475,-0.14306854722881693,0.002070890109786561,0.5902257145865458,0.045507033629830905,0.6597390295419717,0.48152874887111347,0.17821028067085826,-0.29763722808828286,-0.4138066558968759,0.0015886617314893852,0.8743500594663425,0.039858019663417614,0.9529189840827077,0.7940971351345119,0.15882184894819584,-0.7938350169914967,-0.6164778986393595,0.17250230654213625,0.3039851467714879,-0.20533754988890968,0.7763376878585329,0.5843035383750537,-0.04318806269366194
UMAFall_Subject_03_ADL_Walking_1_2017-04-14_23-44-16.csv,A,MA,0.0362106888020625,0.8889040087090164,0.19029106337939913,1.462158203125,0.663818359375,0.79833984375,2.244998978467617,1.4768664438808914,0.03724297086397807,-0.586181640625,0.1929843798445306,-0.34765625,-1.098388671875,0.750732421875,-0.2870826799207582,-0.8176665383848842,0.010216508048479678,0.11061171234631148,0.10107674336107034,0.4013671875,-0.066162109375,0.467529296875,0.09153379144937457,0.49856893344900105,0.05327702139840642,1.084384203789786,0.2308181565614075,1.8363163496304096,0.7914973169860863,1.0448190326443232,2.2788094178414546,1.447340896421978,0.0367502316731201,0.6052912955950915,0.19170349937630274,1.1176393302149803,0.37378240642587185,0.7438569237891084,-0.21481261892872006,0.8017378950909037,0.03592847486825594,0.901505351838245,0.18954808062403572,1.4715977919991,0.6698379686487391,0.8017598233503608,2.2046653005321204,1.4245780461186712,-0.4962712962262299,0.07364751459367634,-0.22166459386509774,0.9063412262264344,0.8177462656958949,0.5071258061787418
UMAFall_Subject_03_ADL_Walking_2_2017-04-14_23-44-56.csv,A,MA,0.05629148737328951,0.9166519915471312,0.2372582714538937,1.489501953125,0.59423828125,0.895263671875,0.5343341025435033,1.1023525132183791,0.02255949954517552,-0.5650054431352459,0.15019820087196623,-0.308349609375,-0.86572265625,0.557373046875,-0.8107397433749499,-0.529988816048701,0.006929329672797782,0.10859455046106557,0.08324259530311258,0.28125,-0.0791015625,0.3603515625,-0.320435649994943,0.07031984610583758,0.060073125983241875,1.0938741070266766,0.24509819661360602,1.6818997386188919,0.7614968000959665,0.9204029385229253,0.5052830734352924,1.1583583641639936,0.022275080757208483,0.5814803672107712,0.1492483861125757,0.9039954719261261,0.34339140481162095,0.5606040671145052,-0.7514494658483315,0.5234934507253602,0.05386479764207544,0.9280335619113651,0.2320879092974803,1.4919649527398968,0.6233382545198731,0.8686266982200237,0.5966068173831482,1.1421294686564554,-0.4646491148055307,-0.12718189891981896,-0.21709934829451372,0.9489471348102803,0.706479473630461,0.45286540587701857
UMAFall_Subject_03_ADL_Walking_3_2017-04-14_23-45-34.csv,A,MA,0.04085458973066404,0.8888960040983607,0.20212518331633997,1.4072265625,0.595458984375,0.811767578125,-0.13175927772017282,0.8730408083967792,0.025970954680051953,-0.5739706070696722,0.16115506408441516,-0.23583984375,-0.943603515625,0.707763671875,-0.3672242848855798,-0.24627455801348283,0.00712015602758022,0.11598280609631148,0.08438101698593245,0.281005859375,-0.09326171875,0.374267578125,0.1798977957026371,-0.49708851580036967,0.048165710926039655,1.0762842291538524,0.21946687888161998,1.668447903638014,0.7714742539140301,0.8969736497239839,-0.022825523016420934,0.935994236181726,0.0239847675011551,0.5931705724170067,0.15487016336646353,0.9462559618440827,0.3301341895168102,0.6161217723272725,-0.5311803685331835,0.36504849515738275,0.0393635851500662,0.9011426698657867,0.19840258352669252,1.4143818868687714,0.6059116835305542,0.8084702033382172,-0.12017588627992071,0.870999603159084,-0.4475166760254766,-0.04772899034831028,-0.0814221283506278,0.9338344629411746,0.7402198892575088,0.45540664013123816
UMAFall_Subject_04_ADL_Aplausing_1_2016-12-03_17-50-30.csv,A,MA,0.0596351307597968,1.013211609887295,0.24420305231466047,1.7578125,0.285888671875,1.471923828125,3.5106619605995455,0.2006122339604189,0.025652795052919227,-0.38090340035860654,0.16016489956578883,0.028564453125,-0.802490234375,0.8310546875,1.4800535559021784,-0.010214824357112533,0.012751093946519444,0.14094918673155737,0.11292074187906952,0.4697265625,-0.1591796875,0.62890625,2.8677616592744215,0.10391070982545933,0.06640487720722767,1.1057429132065897,0.257691437978113,1.792212532487235,0.3354185665068913,1.456793965980344,2.238054710507728,-0.1248655271232498,0.025480219383870184,0.42150430581938786,0.15962524669948105,0.8771028114807872,0.08826553069744586,0.7888372807833413,1.7320868236984595,0.9781481289491792,0.05803595351386996,1.0298443865437732,0.2409065244319256,1.757830963037803,0.3347140367033805,1.4231169263344225,3.104589284485324,0.317939201140461,-0.4240509212152314,-0.2688708300074402,-0.549061291630794,0.9820491693180574,0.5349355941056796,0.3702956805014528
UMAFall_Subject_04_ADL_Aplausing_2_2016-12-03_17-51-07.csv,A,MA,1.4721410088851805,-0.18096823770491804,1.2133181812225433,3.6044921875,-1.2177734375,4.822265625,1.3589371305764057,1.5440688576644073,0.24979688899764596,-0.035316342213114756,0.49979684772679983,0.70751953125,-1.309326171875,2.016845703125,-0.06657583171031822,-0.8153531093590819,2.795101915845455,0.27723568775614754,1.6718558298625676,6.225830078125,-2.1259765625,8.351806640625,5.5161305527827995,2.2515224001488185,1.9238626719383034,1.6314173024569332,1.3870337674109825,7.305010236658526,0.25834808204962206,7.046662154608904,7.784062800006941,2.746407502683723,1.7982460285843276,1.1420694882945475,1.340986960631731,6.353802847739086,0.09804913643588481,6.255753711303202,7.9126536969117875,2.853108859923469,1.911381621893481,1.5578349576784793,1.3825272590055795,7.193978321584968,0.24092734032175378,6.953050981263214,7.870325793755638,2.7712219849622595,-0.7796076172215907,0.5984731508512647,-0.6261599932675971,0.9982617989005156,0.9613059105686977,0.960441840079278
UMAFall_Subject_04_ADL_Aplausing_3_2016-12-03_17-51-44.csv,A,MA,0.17149774597275774,0.11102795210040983,0.41412286337843957,2.0,-0.5013427734375,2.5013427734375,9.765569498299953,2.3828083204889094,0.034934915988985946,-0.07673419889856557,0.18690884406305108,0.7664794921875,-0.58514404296875,1.35162353515625,8.000024934648,1.5865239212892353,0.27869975858169493,0.07387855404713115,0.527920219902302,2.0,-0.86480712890625,2.86480712890625,5.688264168062799,1.8388708065104402,0.2743581102145347,0.48061666423715027,0.5237920486362262,2.930442084727833,0.10952317895143798,2.820918905776395,12.204254413012249,3.3221820782654614,0.21028163161222846,0.3361620276109501,0.4585647518205346,2.141842854166479,0.07470792882043525,2.0671349253460436,6.60048417083355,2.5965288266863435,0.2654631324686693,0.4466443626110309,0.515231144699803,2.8284271247461903,0.09644877668967486,2.7319783480565154,11.980421544804049,3.2781103531322517,0.45465358972335257,0.6867144027873172,0.09233393426095748,0.9973941387288637,0.973937769429727,0.9671271776910324
UMAFall_Subject_04_ADL_Bending_1_2016-06-13_12-56-21.csv,A,MA,0.0008341560272571164,-0.9316086065573771,0.028881759421079536,-0.8662109375,-0.952392578125,0.086181640625,0.8732272749170633,1.6549058996699264,0.00025154980805402246,-0.20498607197745902,0.015860321814327175,-0.156982421875,-0.21875,0.061767578125,4.153390907963251,2.1454961038476927,0.0004600210267989361,0.365814709272541,0.021448100773703394,0.440185546875,0.3466796875,0.093505859375,5.245949441858718,2.3398036098391066,0.0006230684582019181,1.0220772083815306,0.024961339270999024,1.0683480215079575,0.957951348650216,0.11039667285774146,1.1292637961869492,-1.4061053180795038,0.00045060243444702716,0.4196383936853361,0.021227398202488857,0.48811673253832716,0.3828923667583222,0.10522436578000494,3.4555457604875377,1.7460932159221088,0.0006561600147820198,1.001170592394463,0.025615620523071852,1.0466227725770803,0.9365899119090234,0.11003286066805684,1.1035971260354174,-1.452101912168331,-0.13871242327363922,0.29087936101155276,-0.1437860352494478,0.9932324516641279,0.04486490932392101,-0.01094462346173018
UMAFall_Subject_04_ADL_Bending_2_2016-06-13_12-57-13.csv,A,MA,0.0006009183294786132,-0.9397252817622951,0.02451363558264284,-0.87060546875,-0.958251953125,0.087646484375,3.8366883705619195,2.3186741228539374,0.0006354626736354306,-0.1863153176229508,0.025208384986655345,-0.120849609375,-0.21044921875,0.089599609375,2.7370213360619555,2.0769192351427814,0.0005635563141661266,0.3669033363217213,0.02373934106427823,0.4404296875,0.344482421875,0.095947265625,0.08563568958797063,1.1506425512544396,0.0005757469440706232,1.0264595377542862,0.023994727422303075,1.0650908913130925,0.9446884806908992,0.12040241062219337,3.889060865652386,-1.914508306734099,0.0006574694078237735,0.41214576002060493,0.02564116627269075,0.48071140271639967,0.36555295707206814,0.11515844564433153,-0.2661171452539608,0.42209045624855396,0.0005254597218621639,1.0091234823620754,0.022922908233079065,1.0475273092802386,0.9366406953057366,0.11088661397450206,3.4560888518935338,-1.8936715368255053,0.19017980624070316,0.16889428231785658,-0.2346671962692285,0.986994208900233,0.38211942147190747,0.2998117089692553
UMAFall_Subject_04_ADL_Bending_3_2016-06-13_12-57-54.csv,A,MA,0.00011170584647381891,-0.9458568135245902,0.010569098659479857,-0.87451171875,-0.962890625,0.08837890625,35.382509356052815,5.119508661440605,0.00030072859076202887,-0.20025534707991804,0.017341527924667678,-0.15771484375,-0.218017578125,0.060302734375,1.0018671871053453,1.3938293029226612,0.0006584238484908974,0.37830590420081966,0.025659771013999667,0.43798828125,0.344970703125,0.093017578125,-1.5011858495170383,0.02676800978138986,0.00020069345573493094,1.0386137745625024,0.0141666317709938,1.0649067603295115,0.9603012894169418,0.10460547091256966,14.68028487465631,-2.7383594741507173,0.0006051347220660045,0.42844576708768045,0.024599486215488416,0.48126830276760363,0.383079669131323,0.09818863363628061,-1.266807127506383,-0.049085539238996716,0.00019372863592795553,1.0189835232747577,0.013918643465796354,1.0460597322615066,0.94108215071541,0.1049775815460966,15.608905411576634,-2.806242523996285,-0.031449547187571786,-0.030767183761871746,-0.09358778372317532,0.9749414156071289,0.7309230191197265,0.6658344304828842
UMAFall_Subject_04_ADL_HandsUp_1_2016-12-03_17-48-37.csv,A,MA,0.0005048573017120362,0.93701171875,0.022469029834686592,1.007080078125,0.916259765625,0.0908203125,5.264604301738954,2.5783439576837415,0.0013597337274603505,-0.35283923539959017,0.03687456748845131,-0.300048828125,-0.390380859375,0.09033203125,-1.8294965828235779,0.4352751889931653,0.0005431723073532021,0.19640112704918034,0.0233060573103475,0.218017578125,0.156494140625,0.0615234375,-1.3117687840109766,-0.7214404120884604,0.0005682906655029945,1.021209678371547,0.023838847822472344,1.0977368851227718,0.9876122302248661,0.11012465489790568,2.1955556193475747,1.2526777142336227,0.0015048013501127915,0.40430249457794576,0.0387917691026433,0.4441264234971506,0.3440482839476414,0.10007813954950917,-1.6314243734360498,-0.4783101623661722,0.00047139414235261877,0.9576698524059802,0.021711613075785473,1.0287341148382974,0.9376155146322579,0.09111860020603946,4.914689600713757,2.428599925180626,0.11306768524783395,-0.17308372744547584,-0.480290162316614,0.8515402001496276,0.5044455413589928,-0.0026127707132676003
UMAFall_Subject_04_ADL_HandsUp_2_2016-12-03_17-49-13.csv,A,MA,0.00012524717492484004,0.9240642610143442,0.011191388427037999,1.0009765625,0.911865234375,0.089111328125,38.073098614486426,5.515048599519597,0.00047641901370606136,-0.3827364561987705,0.021827024847790442,-0.34423828125,-0.40625,0.06201171875,-0.9447957209598394,0.8537696741769996,0.000589504789133541,0.19070584656762296,0.024279719708710415,0.218505859375,0.157470703125,0.06103515625,-1.8050708924756635,-0.27982392015876745,0.0002150875773415404,1.0186808898452233,0.014665864357123326,1.100964241710057,0.9971829611335155,0.10378128057654146,15.731111230274978,2.734700301929511,0.00042325655817429867,0.4283550472852298,0.02057319999840323,0.45844103530321545,0.3811366710133248,0.07730436428989063,-0.7301080904935033,-0.3415272831356462,0.00013877406891557744,0.9438379172472499,0.011780240613653757,1.0242367310040428,0.9313855091813227,0.0928512218227201,36.93454029340637,5.414045889135332,-0.25768064743286534,-0.03969177867745772,0.1539254876482553,0.8416298909903204,0.7381915426939469,0.3572223509590009
UMAFall_Subject_04_ADL_HandsUp_3_2016-12-03_17-49-52.csv,A,MA,0.000926256407805479,0.9452604700307377,0.030434460859451395,1.0205078125,0.916015625,0.1044921875,0.46033109451259424,1.4862347162813268,0.0014506590822355341,-0.3350810066598361,0.03808751871985801,-0.2841796875,-0.400634765625,0.116455078125,-1.6652497648786333,-0.4673231925750916,0.0015463303998519814,0.16858910732581966,0.039323407785338,0.218017578125,0.105712890625,0.1123046875,-1.5427851757023927,-0.5214151003487423,0.0010750704608454796,1.0183419898857105,0.03278826712172328,1.1081147355982868,0.9801890061540883,0.12792572944419844,0.23355530851258433,1.0621035652920734,0.0015427332951548438,0.3770039576114009,0.039277643706755676,0.44708554836458037,0.3192545469194758,0.12783100144510456,-1.1408973123064858,0.37964123161383045,0.0009279555173572466,0.9609677168237842,0.03046236230756319,1.0392600710621513,0.9309093556370718,0.10835071542507957,0.4501957522080895,1.420389221112342,-0.09283223525323495,-0.0222830672966771,-0.09382835780380713,0.9213389513367324,0.5127406227832992,0.18031392847037506
UMAFall_Subject_04_ADL_Hopping_1_2016-06-13_13-01-04.csv,A,MA,2.5508956381857724,-0.9317807056864754,1.597152352841072,0.60009765625,-4.758544921875,5.358642578125,-0.2469171827004888,-1.0616169800075201,0.07752352848730454,-0.25021212218237704,0.27843047334533005,0.70556640625,-0.9423828125,1.64794921875,2.23541571548877,0.650388975451481,0.18454245550384937,0.2558073450307377,0.42958404940575873,1.513916015625,-0.688720703125,2.20263671875,0.9340374941728777,0.38724958853103353,1.9287830017250702,1.365995123094262,1.3888063226112812,4.876381519385337,0.1902731227382687,4.686108396647068,0.06338689978486078,1.1829705491813185,0.10087655940205578,0.5353414600648394,0.3176107041679417,1.6099116717567021,0.15318982834527026,1.456721843411432,1.3856585319471755,1.2433583847797023,2.0358129733328694,1.273502468529162,1.426819180321343,4.808092111286364,0.03257242203155843,4.775519689254806,-0.044363186065187854,1.13836545819083,0.2220331951950103,0.02122070119089463,0.34468219242739123,0.997792615440046,0.7283226918409968,0.7192164437844956
UMAFall_Subject_04_ADL_Hopping_2_2016-06-13_13-01-42.csv,A,MA,2.9294011967103986,-0.8295538230020492,1.7115493556162493,0.914306640625,-5.59814453125,6.512451171875,0.6979929531765103,-1.3090849926854198,0.1905503423487554,-0.16124487704918034,0.4365207238479697,0.906494140625,-1.710693359375,2.6171875,2.3956619093788545,-0.2101812918026611,0.21922913053648066,0.37331102715163933,0.46821910526641336,1.740478515625,-1.090087890625,2.83056640625,2.50372509489943,0.5505063329866525,2.128917981869925,1.429665308532285,1.4590812115403051,5.814529075036821,0.22632402168112203,5.588205053355699,1.3513798871170817,1.50717393348398,0.1896152678442045,0.6179935186922927,0.4354483526713639,2.028487953894966,0.037406933057216415,1.9910810208377494,2.4867375633427873,1.6372446258297673,2.155006690182363,1.3434490661099956,1.4679941042737068,5.616928773739117,0.04288126970275951,5.574047504036358,1.1462044801135,1.4447306089991365,0.302196963270344,0.012673063892692207,0.7782134430819577,0.9979280635957295,0.6732435368061911,0.6607883328553996
UMAFall_Subject_04_ADL_Hopping_3_2016-06-13_13-02-19.csv,A,MA,2.397857677871412,-0.8039470735143442,1.5485017526213563,0.77880859375,-4.730224609375,5.509033203125,-0.01628866890098246,-1.1249131824069971,0.1562682898318181,-0.15685034579918034,0.395307841854697,0.76220703125,-1.366943359375,2.129150390625,1.043568145939262,-0.2832817027682154,0.22386252153766603,0.3662829789959016,0.4731411222221823,1.69580078125,-0.89453125,2.59033203125,0.691296566734779,0.5888498042502257,1.7050358603845575,1.3639865799155615,1.3057702172988008,4.847728061682058,0.11493968459973357,4.732788377082324,0.27514883943573887,1.222463749493012,0.1725645981224032,0.6024356730134649,0.4154089528674162,1.8592202258406745,0.05376639537486631,1.805453830465808,0.37858514359669737,1.0437312060205015,1.7449753015852048,1.281743401918193,1.3209751328413433,4.814063877054752,0.07377936150518347,4.740284515549569,0.19503517761165368,1.1940735677554386,0.29019232510045323,-0.20943337893378017,0.31331790922763736,0.995716725290059,0.6413494229788107,0.6191255949931804
UMAFall_Subject_04_ADL_Jogging_1_2016-06-13_13-07-16.csv,A,MA,0.7047581156094869,-0.41357421875,0.8394987287718111,0.77978515625,-2.651611328125,3.431396484375,0.9853849744846181,-1.0976623419064007,1.5758359069055545,-1.0005683273565573,1.2553230289075217,0.663818359375,-4.160888671875,4.82470703125,0.26866231990264433,-1.021316124290809,0.09261303964208384,0.2274870325307377,0.3043239058011773,0.9501953125,-0.323486328125,1.273681640625,-0.44875534979741927,0.40363841916169385,1.5928974686135347,1.4111869454778518,1.26210041938569,4.938890496758375,0.15931106481732515,4.779579431941049,1.1579375689103495,1.4182712592743685,1.2985798520295808,1.1902491312401,1.1395524788396456,4.166724937349399,0.025588220392549106,4.14113671695685,0.6323398538353824,1.2472825853910365,0.4185021041667861,0.7716554071724814,0.646917385890027,2.660760191981322,0.08876282988748731,2.571997362093835,2.264046819442978,1.668768120775257,0.7421436098062524,-0.23152344241388698,-0.43325221923058405,0.9291585989311955,0.9852732477323386,0.86175900496559
UMAFall_Subject_04_ADL_Jogging_2_2016-06-13_13-07-58.csv,A,MA,0.6859098206778041,-0.2413790343237705,0.8281967282462568,1.115234375,-2.529296875,3.64453125,0.902570971064752,-1.052705130415155,1.8398711528282996,-1.0336713947233607,1.3564185020959791,0.6572265625,-4.58837890625,5.24560546875,0.16658708648051634,-1.107867011196054,0.13820564007498526,0.2825667584528688,0.37176019162221396,1.59130859375,-0.406982421875,1.998291015625,2.4721761931555273,1.329644758535504,1.8245575046705877,1.4255708819418693,1.3507618238129873,5.057817943099861,0.14425343799956666,4.913564505100295,0.6209647468393662,1.3303418817568882,1.6543845766499399,1.2110765094454603,1.2862288197089737,4.607754936647774,0.05187801582118588,4.555876920826589,0.2529612807064954,1.208227088755297,0.38696688857062383,0.7537174625415217,0.6220666271153146,2.81969871076545,0.07218681368150644,2.7475118970839434,2.666172666459129,1.7440519474147294,0.7599775770785221,-0.4269616554467051,-0.4412018741982778,0.875558365931754,0.9887084556872896,0.8124910205092178
UMAFall_Subject_04_ADL_Jogging_3_2016-06-13_13-08-41.csv,A,MA,0.9047227432819013,-0.29600649974385246,0.9511691454635717,1.3291015625,-3.07177734375,4.40087890625,0.9059877600979211,-1.019647493486526,1.5127726812505982,-0.9228435578893442,1.229948243321888,1.1904296875,-3.864990234375,5.055419921875,-0.010419598749990211,-0.9481062379914064,0.13612539194972137,0.2654328893442623,0.36895174745448944,1.36962890625,-0.594482421875,1.964111328125,0.723370327604365,0.6962982106215575,1.4743688245798514,1.4391921467516164,1.2142359015363742,4.391771119424007,0.17486929099285137,4.216901828431156,-0.3585986032437014,0.9551032384573837,1.2916631879278335,1.1284827986111983,1.1365136109734162,3.910442284669662,0.08585318851137434,3.8245890961582876,0.13602845573796518,1.1663728135915303,0.5282765841123721,0.8137832668727409,0.7268263782447443,3.1602821655085016,0.010186838889172396,3.1500953266193292,1.7010076118691089,1.499997475963025,0.4256710054241104,-0.43834457458591336,-0.4596511556890255,0.7610844482168486,0.9245105878369175,0.48923820648117416
UMAFall_Subject_04_ADL_LyingDown_OnABed_1_2016-06-13_13-10-22.csv,A,MA,0.0004711644571335589,-0.9491827292520492,0.0217063229758879,-0.90625,-0.968017578125,0.061767578125,-0.20377583449246073,1.2106414612006546,0.0004759409062849368,-0.07403864626024591,0.021816069909242057,0.006591796875,-0.09375,0.100341796875,4.283459422640725,2.032377172117836,0.0006067588029663421,0.3843013575819672,0.02463247456035106,0.406005859375,0.307373046875,0.0986328125,4.699250957399107,-2.36018289769122,0.0005129606486467033,1.0272005391428716,0.022648634586806847,1.0515012011863534,0.9631238736115738,0.08837732757477956,0.22944035720285516,-1.1352385995995304,0.0005726772626401248,0.3920088213322362,0.023930676184348087,0.4124497729847089,0.3173274065220221,0.09512236646268679,4.219794476806975,-2.274190975626738,0.0005145383939837466,1.0242995343152075,0.022683438760111894,1.0479835505341168,0.9591498455546816,0.08883370497943521,0.3148259678887575,-1.1590513227083645,0.03342096192616364,-0.10146813342309201,0.034274210851439654,0.9986719161502694,0.4750785939746675,0.4740028795863848
UMAFall_Subject_04_ADL_LyingDown_OnABed_2_2016-06-13_13-11-01.csv,A,MA,0.0006934672105507772,-0.9468093621926229,0.026333765597627266,-0.863525390625,-0.968017578125,0.1044921875,2.0890950258111483,1.6588714590754026,0.000502693099402339,-0.13370901639344263,0.022420818437388475,-0.052978515625,-0.153564453125,0.1005859375,6.88897282853622,2.66882673537973,0.001089546882389673,0.3670073962602459,0.03300828505678041,0.40478515625,0.29052734375,0.1142578125,-0.4874251828917693,-0.9334595490792985,0.000928076469193526,1.0248687100268086,0.030464347509728908,1.0552090238447775,0.9219121763847637,0.1332968474600138,2.253047181415071,-1.515086424911403,0.0010650007103506108,0.3912686110325278,0.032634348627644014,0.4302462326363642,0.31222493463705386,0.11802129799931033,-0.11703181267823481,-1.0285555822728714,0.0009249950459890982,1.0158672897609522,0.030413731207944515,1.047927555055468,0.9169272500344692,0.1310003050209989,1.8641771383403603,-1.4390032789707847,0.03728773367946447,-0.3276143411662398,-0.1656862926542578,0.9970885793314594,0.6520158792334941,0.6307086554996878
UMAFall_Subject_04_ADL_LyingDown_OnABed_3_2016-06-13_13-11-39.csv,A,MA,0.00016860486379738062,-0.9561827612704918,0.01298479356006019,-0.90625,-0.968505859375,0.062255859375,8.051057777488632,2.691580294098837,0.00044983517928201636,-0.06117523693647541,0.021209318218227014,-0.033447265625,-0.129150390625,0.095703125,2.964585714136309,-1.735987947826517,0.00039024584280337136,0.381988025102459,0.019754641044660147,0.40625,0.343994140625,0.062255859375,-0.8553946220005089,-0.7723289176262634,0.00015433254058876654,1.0318832692894682,0.012423064862938073,1.050509194249875,0.992846082648317,0.057663111601558015,2.585546759826018,-1.4277597112328404,0.0004285064849945856,0.38737848204235953,0.020700398184445284,0.41609312956330774,0.3480870866933129,0.06800604286999484,-0.8815165514121128,-0.70135773414418,0.00015847950087378795,1.0298515096924785,0.012588864161384376,1.0456178433024577,0.9857921088094204,0.0598257344930373,3.391893102253208,-1.6567643310979134,-0.2513311518163324,0.214420989425429,-0.2160443361781547,0.9912819868095838,0.36754416086305075,0.31461607147052456
UMAFall_Subject_04_ADL_MakingACall_1_2016-12-03_17-42-53.csv,A,MA,0.07736642881820761,0.9666728035348361,0.27814821376059135,1.898193359375,0.254150390625,1.64404296875,2.309424685629981,0.5770854414654514,0.0677531033265786,-0.41915743468237704,0.26029426295363983,0.1650390625,-1.601806640625,1.766845703125,6.70247741421565,-1.5509829344908685,0.059252826112215634,0.10890272797131148,0.24341903399737588,0.635986328125,-0.3779296875,1.013916015625,-0.483370394869842,0.17555382524877772,0.084149324589525,1.113670163273712,0.2900850299300621,2.500807762780073,0.5269260023417113,1.9738817604383616,8.475085981069652,1.9701149463410177,0.059808450383993336,0.5036354239393946,0.24455766269735515,1.628158910182211,0.0858625605428729,1.542296349639338,6.612338170838019,1.7147709773563753,0.07556867846017404,1.0031778808373315,0.2748975781271527,1.9204829997765471,0.31860585412815157,1.6018771456483956,2.2222773939082074,0.5376098405541487,-0.1166098029038012,0.06453246501310561,0.2560388649959338,0.9213422824242483,0.5530378032607283,0.23826912069411657
UMAFall_Subject_04_ADL_MakingACall_2_2016-12-03_17-43-29.csv,A,MA,0.033542908899119636,0.9602410988729508,0.18314723284592546,1.53564453125,0.270751953125,1.264892578125,4.0869046771553545,-0.23663167189500722,0.029370676494035568,-0.37202628714139346,0.17137875158267307,0.003173828125,-0.866943359375,0.8701171875,1.146434217283801,-0.5830465700231385,0.03918392798288272,0.0856693455430328,0.19794930659864085,0.578125,-0.4267578125,1.0048828125,0.4498026976898424,-0.19674143336899963,0.02345014411961997,1.070123278494483,0.15313439887765246,1.5394796203176224,0.4970301403907495,1.0424494799268729,4.110301592286217,-0.1631932482580679,0.022377611111573444,0.43722166982446314,0.14959148074530662,0.8775958995637233,0.10859730666668851,0.7689985928970348,1.9817891673449104,0.948025972543889,0.03050816258844444,0.9853571786968486,0.17466585982510846,1.5369965294952028,0.3705132210054722,1.1664833084897306,3.327139957083001,0.11569888498558624,0.37270317776327533,0.5048117815786192,0.4623222195245426,0.893985390738979,0.052408892936989526,-0.34167844459527746
UMAFall_Subject_04_ADL_MakingACall_3_2016-12-03_17-47-48.csv,A,MA,0.5489979586966051,0.02511846823770492,0.7409439646131177,1.225830078125,-0.7607421875,1.986572265625,-1.6676457014561719,0.38214260306338727,0.08786898082722733,-0.6083303983094263,0.29642702445496993,0.132568359375,-1.525634765625,1.658203125,1.9699995425821841,-0.7629916607536149,0.08711729502417351,0.3226578509221312,0.29515639078999034,0.861328125,-0.450439453125,1.311767578125,-0.445061266730415,-0.3245136852050082,0.06636154189872538,1.0590783221676223,0.2576073405373484,1.863772569413541,0.4638374399384219,1.399935129475119,2.4720455377520425,0.722939640959179,0.06389654666975689,0.7638341104908178,0.25277766252134876,1.5787971689180498,0.19498813397421666,1.383809034943833,2.0924867930670352,0.6407841534013654,0.060078046398750286,0.8193491323138181,0.24510823404926707,1.320116920205902,0.10807077183567577,1.2120461483702263,1.3741264951453251,-0.6747235678556908,-0.040234566990095734,-0.589643688338347,0.19884497564665288,0.7026003672652629,0.7349932347416245,0.20467418010287255
UMAFall_Subject_04_ADL_OpeningDoor_1_2016-12-03_17-52-32.csv,A,MA,0.0016653066450129442,0.9598648821721312,0.04080816885150502,1.01904296875,0.9091796875,0.10986328125,-1.781815356855902,0.31855509079564825,0.0016516693302842435,-0.35454821977459017,0.04064073486397907,-0.283935546875,-0.398681640625,0.11474609375,-1.4809574342026817,0.5624185329479583,0.001301319351613196,0.18771212218237704,0.03607380422984518,0.2724609375,0.113037109375,0.159423828125,0.26034587617100735,-0.5842043814799087,0.0018481718520146385,1.0416360134910434,0.042990369293769023,1.113192745505438,0.9739236196495678,0.13926912585587026,-1.2300318428355752,0.2487973794440157,0.0019984210015243347,0.402342142944805,0.04470370232457637,0.4708746126809792,0.31269267817953633,0.15818193450144286,-1.1390462570265063,-0.5563248535944124,0.0017056851969876456,0.9786811035677143,0.04129994185210974,1.041913502375921,0.9255977722428828,0.1163157301330382,-1.6677700593616354,0.358143779876947,-0.09546926429207458,0.10721845966994917,-0.3892157631201715,0.9503926862851465,0.4919129062464287,0.21783385640990638
UMAFall_Subject_04_ADL_OpeningDoor_2_2016-12-03_17-54-07.csv,A,MA,0.0008940637111663818,0.9951171875,0.02990089816654981,1.021484375,0.924560546875,0.096923828125,0.6798556862609395,-1.5425605623896335,0.0008895200784089137,-0.3114714075307377,0.029824823191578417,-0.282958984375,-0.3896484375,0.106689453125,1.0916497017159257,-1.4953128256555912,0.0008591053590097063,0.13680279841188525,0.029310499125905488,0.20947265625,0.06005859375,0.1494140625,1.5755765043808054,0.20535786196011713,0.0009497183328367414,1.0524508907384849,0.03081750043135785,1.0962325396392398,0.9738946407659884,0.12233789887325142,0.9797028035848205,-1.37878986278197,0.0009063872451711055,0.3414057327744656,0.030106265878901445,0.41450599095946766,0.2976265479459726,0.11687944301349507,0.4258044145141082,1.127004653317376,0.0009549066521911203,1.004867353763705,0.030901563911736252,1.0364147956687915,0.9296270398908391,0.10678775577795241,0.8467195460072912,-1.553768335247075,0.01022385768161703,0.31300120391361536,-0.016117972925980266,0.9522544571686516,0.41877833735808384,0.14555177365552305
