File,Action_Type,PersonNo,var_Gyroscope_X,mean_Gyroscope_X,std_Gyroscope_X,max_Gyroscope_X,min_Gyroscope_X,range_Gyroscope_X,kurtosis_Gyroscope_X,skewness_Gyroscope_X,var_Gyroscope_Y,mean_Gyroscope_Y,std_Gyroscope_Y,max_Gyroscope_Y,min_Gyroscope_Y,range_Gyroscope_Y,kurtosis_Gyroscope_Y,skewness_Gyroscope_Y,var_Gyroscope_Z,mean_Gyroscope_Z,std_Gyroscope_Z,max_Gyroscope_Z,min_Gyroscope_Z,range_Gyroscope_Z,kurtosis_Gyroscope_Z,skewness_Gyroscope_Z,var_Gyroscope_N_XYZ,mean_Gyroscope_N_XYZ,std_Gyroscope_N_XYZ,max_Gyroscope_N_XYZ,min_Gyroscope_N_XYZ,range_Gyroscope_N_XYZ,kurtosis_Gyroscope_N_XYZ,skewness_Gyroscope_N_XYZ,var_Gyroscope_N_HOR,mean_Gyroscope_N_HOR,std_Gyroscope_N_HOR,max_Gyroscope_N_HOR,min_Gyroscope_N_HOR,range_Gyroscope_N_HOR,kurtosis_Gyroscope_N_HOR,skewness_Gyroscope_N_HOR,var_Gyroscope_N_VER,mean_Gyroscope_N_VER,std_Gyroscope_N_VER,max_Gyroscope_N_VER,min_Gyroscope_N_VER,range_Gyroscope_N_VER,kurtosis_Gyroscope_N_VER,skewness_Gyroscope_N_VER,Gyroscope_corr_XY,Gyroscope_corr_XZ,Gyroscope_corr_YZ,Gyroscope_corr_NV,Gyroscope_corr_NH,Gyroscope_corr_HV
UMAFall_Subject_01_ADL_Aplausing_1_2017-04-14_23-38-23.csv,A,MA,9.130801541688012,-3.3473360655737703,3.021721618827256,4.65625,-10.484375,15.140625,0.52864172568498,-0.12597480821990478,4.074160983393101,0.8943391393442623,2.0184550981860117,4.640625,-2.7578125,7.3984375,-0.7546741376178416,-0.10214538980162056,4.105307457095287,-1.403688524590164,2.026155832381924,2.5078125,-6.921875,9.4296875,0.017844442428371465,-0.09079057172349286,4.172035926446836,5.186298861007733,2.042556223570562,11.817652955926517,1.3030725409105204,10.514580415015997,1.5465072332748449,0.8774809720115977,2.1092235176659577,2.9565041317748952,1.4523166037975184,7.378264141265292,0.4616652094591924,6.916598931806099,0.3358205007712449,0.3398251182732991,5.549565469014903,4.553628754016001,2.355751572007308,11.817588396445888,0.204472692629725,11.613115703816163,1.057512152147475,0.7444941767771401,0.19783813280600399,-0.15352830006245832,0.16498031687642425,0.9543770687378297,0.12712436280152586,-0.019580838682513344
UMAFall_Subject_01_ADL_Aplausing_2_2017-04-14_23-38-59.csv,A,MA,24.104925170231386,-2.1312756147540983,4.909676686934832,14.2890625,-20.3359375,34.625,5.277985291989095,0.4146365247489715,4.824088741781934,-0.3680840163934426,2.1963808280400587,4.546875,-8.9921875,13.5390625,3.1088071587319552,-0.9511684969767177,4.705768422611424,-1.655609631147541,2.1692783183841176,8.625,-6.703125,15.328125,7.3534275861159415,1.5352832468230873,12.05012872555171,5.352538805885924,3.471329532837773,20.465013375537712,1.538804705566954,18.92620866997076,7.120889544156851,2.380213648582266,3.9587440656980992,2.8907287091040996,1.989659283821755,9.750112679637349,0.5522061577210091,9.19790652191634,2.670953949544902,1.4790377582926901,12.187417981657672,4.861495849328849,3.491048264011495,20.444239260615998,0.9046996437008804,19.539539616915118,7.74018058764273,2.509424161087518,-0.07069179232122794,0.07684246242629092,0.29320187852141016,0.9592744910861751,0.48699584611835933,0.31220915493149026
UMAFall_Subject_01_ADL_Aplausing_3_2017-04-14_23-39-35.csv,A,MA,6.812530851103569,-2.9404456967213113,2.610082537220532,4.7421875,-8.5625,13.3046875,0.8351578363673196,0.836773134022102,7.309427296789616,0.31954405737704916,2.7035952538776242,8.6484375,-8.59375,17.2421875,2.3439306335535717,-0.12704976880808555,2.0341908272498292,-1.2567879098360655,1.4262506186676411,2.1953125,-4.8671875,7.0625,0.09984596374352428,-0.12258894914744932,4.054231935482288,4.715015387814265,2.013512338050673,9.901717343352932,1.1558804308026414,8.74583691255029,0.06952890152820634,0.3912178152275067,3.32008659719527,2.7579719656454844,1.822110478866545,8.922716411724767,0.2717582364207201,8.650958175304048,2.481720744942617,1.4099986063430001,3.06034684612453,3.9896432138850244,1.7493847050104587,8.851203931395787,1.0097184013377194,7.841485530058067,-0.18049102461675082,0.139634810037496,-0.1446737589086068,0.26154175794266543,0.3088666063436645,0.804488030837304,0.7401862121317682,0.28066778113421764
UMAFall_Subject_01_ADL_HandsUp_1_2017-04-14_23-32-44.csv,A,MA,2.912591886259819,-2.4345543032786887,1.706631737153572,0.6953125,-6.46875,7.1640625,-0.5604857395472242,-0.1927049467776929,1.3111776383196723,0.6924948770491803,1.1450666523480946,2.7734375,-2.15625,4.9296875,-0.7180473400080327,0.21807723017671066,1.8693768610719774,-1.1780225409836065,1.367251571976415,0.890625,-4.0546875,4.9453125,-1.2263758859031315,-0.07337626908810613,1.8124901967074722,3.46479760083321,1.3462875609272604,6.481592964949376,0.4902616090542885,5.991331355895088,-0.6412030171184981,0.05563375285695922,1.1349451288736565,1.9696093654525173,1.0653380350262804,4.603425715737411,0.2281731541642224,4.3752525615731885,-0.5365618793497022,0.09041502626874416,2.263934075712512,3.1291447996834134,1.5046375230308835,6.469811393901391,0.32211762700137975,6.1476937669000105,-0.8129372439300635,0.1846491486116375,0.3126711952659737,0.07215084830544863,0.05136357797406437,0.9528019342437661,0.31376870587104844,0.15391569014560585
UMAFall_Subject_01_ADL_HandsUp_2_2017-04-14_23-33-21.csv,A,MA,2045.8208870309295,-10.591956967213115,45.23075156385232,105.390625,-120.6484375,226.0390625,0.27576619235405664,-0.07477527438010287,159.128508520908,-2.42827868852459,12.614614878025726,21.5,-28.8671875,50.3671875,-0.5505499234669617,-0.12207629623880549,107.40385361968494,1.4900102459016393,10.363583049297427,36.765625,-18.921875,55.6875,1.672845762980888,0.9905460464823127,771.0186874828181,40.45210751377757,27.767223258417793,123.49982257783941,3.691652190881137,119.80817038695827,1.2861297968972893,1.2608082100615168,67.74049533996082,14.270586941690986,8.230461429346523,40.52538869531358,1.9340001151273234,38.591388580186255,0.30085906499972825,0.7723207333952263,781.5372363635973,38.25716281713864,27.955987486826455,120.67104903495002,2.1347575837565844,118.53629145119343,1.2322675779523289,1.197834823417558,0.6884509707665083,0.4544849215436248,0.39641995789964396,0.995779733862524,0.60826863578262,0.5675893343570526
UMAFall_Subject_01_ADL_HandsUp_3_2017-04-14_23-33-59.csv,A,MA,3.032905820419228,-3.0541752049180326,1.741523993638683,0.90625,-6.3046875,7.2109375,-0.5386217305863394,0.31310327029924045,1.7388422064442453,0.4947489754098361,1.318651662283958,2.859375,-2.2109375,5.0703125,-0.7157226914465884,0.25806460576403556,1.784526820782104,-1.2852202868852458,1.3358618269799103,0.9453125,-3.0,3.9453125,-1.5523901747472295,0.3195739776538566,2.030583179163886,3.959299675272365,1.4249853259468626,7.313443114929691,1.1838193370004775,6.129623777929213,-0.5436473798035943,0.09940856546538679,0.9333904871390707,2.1081004743574634,0.9661213625311629,3.965011157180078,0.21021287573552672,3.7547982814445513,-0.7728170428140011,-0.2193815813892277,2.084910098818197,3.6969588121895756,1.4439217772504842,6.958731938745198,1.041643879959101,5.9170880587860974,-0.6592657439097285,0.058175636426856754,-0.018521384104598696,0.07935579054780051,-0.03394535314720104,0.9699018373364668,0.4955937736777537,0.37757201428975484
UMAFall_Subject_01_ADL_MakingACall_1_2017-04-14_23-30-27.csv,A,MA,1116.9177737043203,-1.0446977459016393,33.42031977262217,76.625,-87.46875,164.09375,0.7466053647408026,0.34724055192054554,447.1035598171212,-2.216188524590164,21.14482347566707,52.9765625,-46.4140625,99.390625,0.260505786033006,0.13498855283451808,3147.8907471370176,39.26063012295082,56.10606693698122,194.171875,-8.5546875,202.7265625,0.8721097724295905,1.3865178071524231,3145.9715160198925,55.56680097368557,56.08896073221443,195.4788900622288,0.4591464142160973,195.0197436480127,0.18008642506847483,0.9896209554193497,2943.8261692609913,46.763252874641424,54.257037969843054,195.17134602467144,0.29851520585223124,194.8728308188192,0.694904921664258,1.2663691021568098,3066.221403041204,52.16729454061533,55.37347201540828,194.4809995652391,0.321168824860851,194.15983074037825,0.499402166998022,1.1358654694333337,0.8046761853800157,-0.28791537644404674,-0.24144342805238486,0.9957931739758943,0.9738630695806216,0.9762260399048367
UMAFall_Subject_01_ADL_MakingACall_2_2017-04-14_23-31-05.csv,A,MA,4005.655410016169,-7.681864754098361,63.29024735309674,136.078125,-181.3984375,317.4765625,0.2792730475463312,-0.004838818324211251,2475.7290375256143,4.956582991803279,49.75669841866132,121.875,-130.4609375,252.3359375,0.5450153539610088,-0.39051478325508937,688.8147559327505,5.587090163934426,26.245280641150526,62.828125,-50.859375,113.6875,-0.5769509629540202,0.19312744407143306,1594.6288518734,74.82621129328119,39.93280420748585,187.828999444246,10.212324169424228,177.61667527482177,0.3843647376692956,0.5920773735059593,958.5104984046151,47.1768174664372,30.959820710149714,135.5996342296787,8.071828723734944,127.52780550594377,0.7523478244094677,0.992646649128065,1419.2104814968743,57.548184379178366,37.67241008346658,182.17012825225052,5.353341401419888,176.81678685083062,1.0755835490208545,1.0460584757661964,0.2224007304279487,0.3494960670157605,0.4940053561157737,0.8444624514748102,0.6301025391492302,0.17338497590258514
UMAFall_Subject_01_ADL_MakingACall_3_2017-04-14_23-31-42.csv,A,MA,289.2869374426336,-3.6251280737704916,17.008437242810803,82.5234375,-26.4921875,109.015625,16.347975827623735,3.7157673073930337,44.02165800834614,0.5726178278688525,6.634881913670064,14.4296875,-19.328125,33.7578125,0.10967418628117853,-0.05725793050048764,20.45618929836919,-0.7861168032786885,4.522851898787886,8.578125,-14.765625,23.34375,0.9977224512045799,-0.4559443771862828,184.18347162793887,13.44948757206976,13.571421135162629,82.82504400867568,1.227557319499277,81.59748668917639,17.008396797340225,3.872516302670617,16.71535309479035,6.9228154177851025,4.088441401657892,19.996050635453617,0.6410535913878418,19.354997044065776,1.8465537411709017,1.1745440594328485,189.92199933342073,11.472418219801991,13.781219080089421,82.7889386440991,0.03314563036811941,82.75579301373098,16.939804454638015,3.847043353100527,-0.2743737672564696,-0.1116582519353918,-0.18582736273684933,0.9884623018430203,0.5477660106902713,0.45547817914048916
UMAFall_Subject_01_ADL_OpeningDoor_1_2017-04-14_23-35-12.csv,A,MA,66.1153597472144,-0.8164702868852459,8.131135206551075,14.0859375,-25.484375,39.5703125,0.4340361506794541,-0.47563437712720025,50.69971423539958,4.596183401639344,7.120373180908398,22.3984375,-9.375,31.7734375,-0.38608901512659033,0.12721001389307435,4.434481861552254,-1.3715420081967213,2.10582094717292,2.90625,-6.4296875,9.3359375,0.30509678783641503,-0.347682522286462,33.824795212838445,10.472068606785038,5.8159088036899655,26.91190688936544,1.6846583423557282,25.22724854700971,-0.1154016540604017,0.6418098399182137,23.996929313865106,7.323445167979072,4.8986660749499045,22.520727486116122,0.6674088479429232,21.8533186381732,0.4700363664697367,0.845882430660765,23.172104900853366,7.01062077916083,4.813741258195476,25.549861255127198,0.8387074434993707,24.711153811627828,2.6553039225126076,1.4400292000875434,0.6544023703563494,0.342271886011916,0.29248286321074746,0.7571562295321936,0.8069493724961846,0.25439069918027335
UMAFall_Subject_01_ADL_OpeningDoor_1_2017-04-14_23-36-23.csv,A,MA,201.02681130998118,-10.578765368852459,14.178392409225426,11.328125,-44.8359375,56.1640625,-0.012590653559787945,-1.0647542955587406,270.8644216735506,-3.5727459016393444,16.45795921958584,17.703125,-50.296875,68.0,0.8912304067315571,-1.2696654907495768,93.53615619263361,5.523309426229508,9.671409214413048,30.6796875,-4.640625,35.3203125,0.4050017829849071,1.2864274337479404,332.30716980797666,19.608169558949534,18.229294276191183,69.18995503633232,4.3100933048920185,64.8798617314403,0.9761934740892553,1.5283956834289087,192.57720151236765,14.569765268796717,13.87721879601124,56.63751769493903,1.799522506110996,54.83799518882803,1.6393078970672725,1.6353614347243555,237.05803546791537,14.10600765553315,15.396689107334582,51.864462644006665,0.2080238586827242,51.65643878532394,0.23146843213638713,1.2947416166457728,0.9119123569256885,-0.8676245216359256,-0.866690292653394,0.9668994292463252,0.9720846610386259,0.8913837270764998
UMAFall_Subject_01_ADL_OpeningDoor_1_2017-04-14_23-36-58.csv,A,MA,43.26932883340804,0.9985911885245902,6.57794259882283,26.4453125,-9.0390625,35.484375,2.573278364621988,1.248162471118547,56.11711355740908,1.744108606557377,7.491135665398744,30.6953125,-10.578125,41.2734375,6.464783637744729,2.4278034903824555,29.503653904649077,-2.7106813524590163,5.4317266043725985,2.765625,-22.6796875,25.4453125,3.986210824220935,-2.0937270193863906,71.43372425860943,8.24022796325339,8.451847387323639,38.34207619742189,1.655273149428441,36.68680304799345,5.7474350010886575,2.4725819490827434,61.525905279766356,5.838627635637937,7.843845057098359,34.92324259766204,0.6291367007902575,34.294105896871784,6.200509382399403,2.623973612979875,37.61835824611974,6.551587359469871,6.1333806539395335,29.270781087772175,0.8524579580908961,28.41832312968128,3.5800756110009617,1.943530119523025,0.6325978993756651,-0.46419305111581644,-0.6195835302431372,0.9580273591514535,0.958437127989823,0.8719279514407413
UMAFall_Subject_01_ADL_OpeningDoor_3_2017-04-14_23-37-35.csv,A,MA,22.350493284131655,-2.964267418032787,4.727630832048083,8.453125,-14.3125,22.765625,0.7028806875817644,-0.34516822267791647,16.634675006136867,0.48104508196721313,4.078562860388064,12.28125,-6.515625,18.796875,1.516881183010649,0.9806852467313816,13.701194254557292,-0.7578125,3.7015124279890363,6.8984375,-10.359375,17.2578125,0.16153745218960402,-0.1332545807694448,15.25953859885599,6.812182832007972,3.906345939475406,15.584887965916092,1.4350777826262588,14.149810183289834,-0.4283978258303347,0.797583197833605,8.35328277686837,4.735810423743779,2.8902046254319727,15.081737342545495,0.8810130998068361,14.200724242738659,2.3656575979219214,1.4505431530960986,13.21505399524546,5.64122536445006,3.635251572483734,14.51596137931019,0.641386742242931,13.874574637067258,-0.4095202305574501,0.6878158185753949,0.6567856440493653,-0.4185524402682467,-0.18779967385411087,0.8903309822958417,0.7262382629243508,0.45924960469908765
UMAFall_Subject_01_ADL_Sitting_GettingUpOnAChair_1_2017-04-14_23-28-16.csv,A,MA,18.814207917093583,-4.733350409836065,4.337534774165341,2.796875,-18.296875,21.09375,1.3113970666456174,-0.9077292672782106,23.547197419046707,-2.2802254098360657,4.852545457700186,4.671875,-16.7421875,21.4140625,1.8406832521942595,-1.417317776576325,6.967552476893357,1.0372694672131149,2.639612183047608,6.359375,-4.6953125,11.0546875,-0.90945444311361,0.2017599846807607,25.194186522449744,7.240102297052407,5.019381089581637,20.084164339761873,1.7276403592581124,18.35652398050376,1.3014294094672554,1.4120915065632569,15.729956574644609,4.562650055347794,3.9661009284490745,16.86690524891218,0.5108682101334943,16.356037038778684,2.8076523421864383,1.7383997494942178,14.967568163343408,5.8410139907985785,3.8687941484839183,18.571107865802762,0.377999075106342,18.19310879069642,1.7332772115805701,1.2133121125616202,0.6286797317863257,-0.32281845182766594,-0.40434329848138834,0.9141306922488642,0.8548857784922143,0.6094405734461887
UMAFall_Subject_01_ADL_Sitting_GettingUpOnAChair_2_2017-04-14_23-28-52.csv,A,MA,45.30716832895749,-4.604764344262295,6.731059970684965,6.3984375,-25.4453125,31.84375,1.2820750570573933,-1.1190393386991941,40.68879828114327,-0.5603227459016393,6.3787771775743405,15.6171875,-22.1328125,37.75,4.005560141559891,-0.8212894638104629,25.021269284441175,0.9171362704918032,5.002126476253991,21.0078125,-10.390625,31.3984375,4.931329903575985,1.4662156962785118,60.56244757527257,8.484492667585965,7.782187839886196,34.63251994857263,1.0390625,33.59345744857263,2.4126541444335388,1.6469639674084575,38.18209512401525,5.31336002196807,6.179166215923897,23.493563156014137,0.471993983343538,23.0215691726706,2.643206266555942,1.9285902651046742,41.00338704507352,7.133674063150006,6.403388715756175,27.59866997651619,0.8217992479348286,26.776870728581365,1.5498904353481562,1.467623850365544,0.6244086988853413,-0.34878352279613783,-0.6969819134762961,0.9666988004006629,0.9028883648124736,0.8011372132041461
UMAFall_Subject_01_ADL_Sitting_GettingUpOnAChair_3_2017-04-14_23-29-29.csv,A,MA,18.436898019926147,-0.7952100409836066,4.2938209114873604,12.515625,-10.125,22.640625,0.9102798435151351,0.364758267198312,15.971632293534412,1.1554815573770492,3.9964524635649568,8.1015625,-12.2109375,20.3125,2.033325972571461,-1.1384468920529622,8.695864051026723,-0.6493340163934426,2.9488750483916273,16.4140625,-4.8046875,21.21875,18.357986591855493,3.3936566252643683,12.627108025850657,5.689181839008682,3.553464228868873,21.088244362510807,0.9401979408447724,20.148046421666034,5.294125161694293,1.8321838557668917,9.254868045080578,4.112995812794887,3.042181461563491,20.45796769923182,0.46417033679727965,19.993797362434538,13.691547869608995,3.0436052890684038,10.313306594496161,4.194963691413898,3.2114337288034083,17.19322702880592,0.6165938600742388,16.576633168731682,3.8566452724483584,1.7144529591313202,0.30302425873271643,-0.208511037637607,-0.6102186612724031,0.9306650219056353,0.7929076377277035,0.5862578441440022
UMAFall_Subject_01_ADL_Walking_1_2017-04-14_23-25-52.csv,A,MA,744.6481727808552,-1.2394979508196722,27.288242390833002,61.1015625,-60.7109375,121.8125,-0.37635120991280324,0.11694129916931012,271.23947276964867,3.361296106557377,16.469349494428997,53.078125,-26.109375,79.1875,0.9610125767022843,0.8440153812864235,822.5597442126667,-3.9228995901639343,28.680302373103856,88.3203125,-44.828125,133.1484375,1.8502620148085427,1.3894292729653785,410.24683810329753,37.855134866259846,20.25455104669806,111.00117835716739,8.490235947564267,102.51094240960312,2.954515126802855,1.5823326481742688,331.3296043865667,27.868576631403023,18.202461492517067,103.04253953398704,6.3522543442392365,96.6902851897478,6.5064620420318064,2.279894542175709,404.8774985769706,34.06172805008465,20.121567994989125,97.48832875356959,2.9925240509162996,94.49580470265329,1.073600521256668,1.0963819341314647,-0.1431364756367599,-0.5517696351896898,0.6374468162583367,0.969586344437869,0.8493802219214466,0.7624171197789776
UMAFall_Subject_01_ADL_Walking_2_2017-04-14_23-26-33.csv,A,MA,1167.4580393306544,-0.7264344262295082,34.16808509897291,71.6796875,-60.34375,132.0234375,-0.8694040664405951,0.17400555650269692,384.562782796224,-21.3671875,19.610272379450112,14.2265625,-60.8828125,75.109375,-0.6220047615666897,-0.07845304291451997,700.6311299641927,-7.4296875,26.46943765863175,59.21875,-75.421875,134.640625,0.7687854318112333,-0.44412366940721465,466.1823835713548,47.63893205282802,21.591257109565316,89.78884905460578,10.633202830822247,79.15564622378353,-1.0104127388009374,0.3768030613735141,351.5998935128457,35.11872500237314,18.75099713382853,76.08295170109254,4.418319296990231,71.6646324041023,-0.7566258769857916,0.5436222488417916,477.23523763355763,37.73302281634699,21.845714399706814,88.35461035175332,1.218775039806875,87.13583531194645,-0.3993569627180835,0.4499430649863214,0.5929673600385137,-0.5453093344438061,-0.3488454664537893,0.9066425131712328,0.8301427104565299,0.6532843952171223
UMAFall_Subject_01_ADL_Walking_3_2017-04-14_23-27-12.csv,A,MA,139.32602642455385,-2.44390368852459,11.803644624629879,23.5546875,-30.5078125,54.0625,0.39348236284391946,-0.017787669509328332,186.39091093136312,2.4897540983606556,13.652505664945286,33.90625,-21.8515625,55.7578125,-0.29448895787358786,0.4847666820832663,115.91456609006786,-1.7300204918032787,10.766362714030578,22.9140625,-26.1953125,49.109375,-0.251746490750794,0.3556981676339351,77.88946407871352,19.311746858492526,8.825500783452094,42.195659656505626,4.723184485036287,37.47247517146934,-0.45292703607139995,0.3744227672744294,76.1426404584882,15.21995714352269,8.725975043425704,35.009290061710765,1.2325193726291892,33.77677068908157,-0.8903304524431399,0.3059605182142641,56.18604139848442,14.309332545385235,7.495734880482662,32.33446802199821,2.2924196797884218,30.04204834220979,-0.402355515647447,0.5959592947592623,0.3229977421017249,-0.28580417528027535,-0.2751265093294271,0.7312616969673803,0.8287209790993555,0.3723317227267465
UMAFall_Subject_02_ADL_Aplausing_1_2017-04-26_19-47-07.csv,A,MA,2.96687178481472,-3.1625256147540983,1.72246096757364,0.40625,-6.5625,6.96875,-0.5506738876776907,0.17703915256354755,2.232498018858863,-0.05507172131147541,1.494154616784643,2.78125,-4.4140625,7.1953125,1.3879300988078462,-0.29154870005052974,1.7318202618041327,-0.953765368852459,1.3159864215880546,0.859375,-2.9921875,3.8515625,-1.600382159652653,-0.107250293773205,2.808575917325449,3.8690179434766425,1.6758806393432228,7.869336225929017,0.6207374174369144,7.248598808492103,-0.2587515304051551,0.12353798556329028,1.2970995431406724,1.880477363197007,1.1389027803727025,4.602842298684857,0.2666570025918127,4.336185296093045,-0.7628938157228151,0.4249546935313289,2.5009898919227096,3.6156480599359857,1.5814518304149228,6.9375,0.38590903235088964,6.55159096764911,-0.6859711563649689,-0.12631867689498477,0.29754870319932886,0.21781127023018815,-0.10474011359510864,0.9779525328377766,0.6484769978192084,0.5398781939749897
UMAFall_Subject_02_ADL_Aplausing_2_2017-04-26_19-47-43.csv,A,MA,2.535510587431694,-3.0888831967213113,1.592328668156073,0.9453125,-6.9375,7.8828125,-0.06146872811354642,0.4564255203891021,1.1306507881873291,-0.11821209016393443,1.0633206422276062,2.265625,-2.84375,5.109375,0.7601116456911412,0.35484944616044456,1.7303172293907956,-1.2143954918032787,1.3154152307886646,0.8671875,-2.921875,3.7890625,-1.7280922815674173,0.32905776718117025,1.91122042684376,3.8023746146265562,1.3824689605353748,7.633232300379866,0.3304419684774469,7.302790331902419,0.046579691607394835,-0.1963296898873589,0.9406738402811076,1.8378096891831228,0.969883415819194,3.508125682010445,0.125,3.383125682010445,-1.3672181199883493,-0.2508467519767639,1.9958748934585204,3.639875876160806,1.4127543641619091,7.355845258884682,0.2543565718140579,7.101488687070624,-0.3507623003906497,-0.14720300562116753,0.04615425176566116,0.1315776189297715,0.06656682603279797,0.9827769315723031,0.49906269855690844,0.4114666197473526
UMAFall_Subject_02_ADL_Aplausing_3_2017-04-26_19-48-18.csv,A,MA,8.401591216540726,-3.3922899590163933,2.8985498471719833,2.7890625,-8.8046875,11.59375,-0.4260471344552612,0.32277130067535287,3.3271393322553786,-0.2065829918032787,1.8240447725468196,4.234375,-3.421875,7.65625,-0.4088548117392685,0.27618057622359626,6.149474864188438,-1.2683145491803278,2.479813473668622,2.4140625,-6.96875,9.3828125,-0.3992365219130618,-0.6002909872757061,3.5352595912898317,5.221756893664334,1.8802286008062508,9.084375537495685,1.6777969011195157,7.406578636376169,-0.5270799741335721,0.25985711249605126,3.2299607511558523,2.7920507908367407,1.7972091562074384,7.538507913539655,0.14149039278339715,7.397017520756258,0.4811985276615669,0.9324010895646571,3.7049948409514992,4.8769375385512035,1.9248363153659325,8.814054744279517,0.918890826792008,7.895163917487508,-0.6058584023174562,0.23829451784313563,0.262828550605306,-0.45660574533882015,0.33090804563096804,0.9753408319265691,0.43811914273256886,0.325755105732732
UMAFall_Subject_02_ADL_Bending_1_2016-06-13_20-25-34.csv,A,MA,3.0721226426421615,-3.330686475409836,1.7527471701994448,1.171875,-8.65625,9.828125,0.4999416446816185,-0.07424107635203957,2.4599538000554984,-0.0860655737704918,1.5684239860622824,2.9140625,-2.8984375,5.8125,-0.8172413958660152,0.08761936221849417,4.866170180690743,-1.6091188524590163,2.2059397500137536,2.4765625,-4.984375,7.4609375,-0.9469940913830053,0.29706944751787834,2.4139926388108686,4.641498436582712,1.5537028798360608,8.946758889615069,1.3645062995113837,7.5822525901036855,-0.030423596415961374,0.17256390325835066,1.5286527881452143,2.8808161075595184,1.2363869896376354,5.3180634930777435,0.49834932605678317,4.81971416702096,-0.8123441371997493,0.32289018095164723,2.7047453162992334,4.33941096522093,1.644610992392801,8.814747192427372,1.2088944458677937,7.605852746559579,-0.21633919758220665,0.244702668617321,-0.20485747373043545,0.38102487172027427,-0.24924629527292164,0.9799027094696584,0.566782106707462,0.4985433542335811
UMAFall_Subject_02_ADL_Bending_2_2016-06-13_20-26-15.csv,A,MA,158.11077977581755,-2.7588370901639343,12.574210900721267,40.8828125,-23.390625,64.2734375,2.9658236329526506,1.3031951098370915,51.335108655919136,-1.5040983606557377,7.164852312219641,8.7265625,-24.84375,33.5703125,1.974942794087469,-1.4525308266991657,79.74278504418545,2.5007684426229506,8.929881580636188,23.578125,-14.765625,38.34375,-0.10996643638537407,0.6083490753486838,101.75972936739365,14.15922579944311,10.087602756224774,49.331639509936025,3.1758172853121605,46.15582222462386,2.292417494253562,1.5254458042040808,53.325418525736836,9.21921900791767,7.302425523463888,33.99407189243626,0.8059380452692998,33.18813384716696,2.205974722057742,1.6153172933504325,86.21524941287622,12.767829348708498,9.285216713296261,43.77268733740574,2.115630192940451,41.65705714446529,2.080296398148671,1.443821329771833,-0.43820414601557817,0.331671058822166,-0.7237408572115989,0.9830931633092765,0.8538730580145805,0.7820051053874466
UMAFall_Subject_02_ADL_Bending_3_2016-06-13_20-26-59.csv,A,MA,6.481437774824966,-4.913422131147541,2.54586680225517,0.09375,-12.03125,12.125,0.6619112479570672,-0.7507415967920162,2.5403868961855363,1.0075563524590163,1.5938591205578791,6.265625,-2.296875,8.5625,1.1438085831064244,0.4839018103143441,3.080171478771773,-1.9089395491803278,1.7550417313476545,0.96875,-6.546875,7.515625,0.28175357623503583,-0.5330445341776733,7.300295303417483,5.789984584064373,2.701905865017781,12.612039390901705,0.3501708567346089,12.261868534167096,0.47026640476495807,0.7705227996495869,2.673502595048773,2.749175039148886,1.635084889248498,7.039079841821035,0.16424840657522374,6.874831435245811,0.4531061229887019,0.8300438307250945,7.0189633331770835,5.503338118059622,2.649332620336126,12.210737562342672,0.24519304416367524,11.965544518178996,0.2727581302238482,0.6414070103633283,-0.43016330621405247,0.3356266299488821,-0.38671154940490443,0.9909139764345601,0.6975213626969935,0.6508774438433077
UMAFall_Subject_02_ADL_HandsUp_1_2017-04-26_19-42-49.csv,A,MA,3.487341908939549,-3.085297131147541,1.8674426119534568,2.4296875,-6.8203125,9.25,0.9547479306254774,0.7710085936839053,3.0270505477821885,0.012935450819672132,1.739842104267565,4.9296875,-4.28125,9.2109375,1.5954279083041811,0.01914559938414316,9.80597560861723,-1.4040727459016393,3.13144944213015,8.8671875,-8.4296875,17.296875,1.5438506343513438,0.3050647817814872,4.56719119041148,4.80116109220779,2.1370987788147464,10.204796833742883,0.7530050475013431,9.45179178624154,0.01631664954693912,0.7071275679916932,5.926427772150049,2.96056803022479,2.4344255528050245,9.027795890072642,0.04555431167847891,8.982241578394163,-0.25630575164612734,1.0120769774911054,4.255725215522543,4.514411779449482,2.062940914210231,10.06299130205887,0.06720566614877052,9.9957856359101,0.28473250422617635,0.6541258017264099,0.0481697141167675,-0.2741745777029762,0.4835442792920265,0.9767037081636581,0.8401324614247924,0.7796104062199247
UMAFall_Subject_02_ADL_HandsUp_2_2017-04-26_19-43-25.csv,A,MA,5.305754447895322,-2.9058657786885247,2.3034223338101336,0.984375,-8.4375,9.421875,-0.4393659029260033,-0.30346128540522965,4.352647991910007,0.07569159836065574,2.086300072355366,4.6328125,-4.78125,9.4140625,-0.11133164107296656,-0.11292234521907199,4.111900521366974,-1.6038678278688525,2.0277821681253076,2.859375,-6.125,8.984375,-0.2468811907108921,0.5246110320800348,2.929408152021466,4.656753415546477,1.7115513874907367,8.842718165291782,1.182065070980126,7.660653094311655,-0.1912340040431859,0.2523041665857415,2.2216146134622874,2.9527465093475858,1.4905081728934892,6.43602550619606,0.20551478809321727,6.230510718102843,-0.3895920163845963,0.1445535665252698,2.8162249357199283,4.184454301588665,1.678161176919526,8.834086068188165,1.1816519240162264,7.652434144171939,0.198994242203256,0.599852270107993,-0.07530218570128012,-0.29086155516992096,0.17099220546556146,0.9329081848535562,0.4391028667888747,0.20961046411260761
UMAFall_Subject_02_ADL_HandsUp_3_2017-04-26_19-44-00.csv,A,MA,3.5825607883474215,-2.2686987704918034,1.8927653812206682,1.7890625,-8.4375,10.2265625,1.0362116420322431,-0.314942386370239,4.341509009189294,0.22015881147540983,2.083628807918842,6.421875,-4.9609375,11.3828125,0.5919158825387707,0.3868383261488267,2.8149859652493174,-1.0526383196721312,1.6777919910553027,2.7421875,-4.1796875,6.921875,-0.3663957737972292,0.6084575030514453,2.3400356016327732,3.8163913257940196,1.5297174907912812,9.187991589739566,1.3105454196154362,7.87744617012413,1.8095555164208301,0.9965499323617057,1.5197045557316489,2.5886099267198848,1.2327629762982213,6.8308597212393405,0.3542432515235823,6.476616469715758,2.418821842441246,1.000939389854308,2.0001733366473973,3.252741439373883,1.4142748448047138,8.795653778464963,1.067314459871129,7.728339318593834,2.8449921298621,1.2136048834344135,0.11041261146060236,-0.03973105746576073,0.41610338559922816,0.8624970395768313,0.6613773650053643,0.3065350803539323
UMAFall_Subject_02_ADL_Hopping_1_2016-06-13_20-37-40.csv,A,MA,2.5798800108862703,-3.746157786885246,1.6062004890069828,0.1015625,-8.3984375,8.5,0.12682387983647203,-0.1089202886732117,3.2542345724470634,0.15945184426229508,1.803949714500674,4.2890625,-4.1796875,8.46875,-0.1499402486627801,-0.27619805416503335,29.549081003991635,-1.117827868852459,5.435906640477891,10.46875,-12.7421875,23.2109375,-0.5050323972816835,-0.09229930143283843,7.468031076208402,6.53958722417984,2.7327698542336862,13.693817213721399,1.7755356531111253,11.918281560610273,0.3893313883422511,0.7609501727654192,9.785045235106496,4.890387068753748,3.128105694363043,12.986626421835368,0.35329434545609417,12.633332076379274,-0.10637310501251829,0.7744549322039538,7.583280548518007,6.27905483099308,2.7537756895793106,13.462225163309974,1.5746790967725774,11.887546066537396,0.37530285943207664,0.7426179952852725,-0.0892513610563914,-0.23355480689691194,-0.5159237462559625,0.9936433561016146,0.923840232188659,0.9091470589584402
UMAFall_Subject_02_ADL_Hopping_2_2016-06-13_20-38-22.csv,A,MA,3.3068289001131315,-3.4633709016393444,1.8184688339680533,0.078125,-8.2734375,8.3515625,-0.4858456530574973,-0.3189049533298472,2.0791097672259222,0.41688012295081966,1.441911844471056,2.9921875,-2.625,5.6171875,-0.3300991453361335,-0.14902171111432266,7.106381075499487,-1.6168032786885247,2.665779637460585,4.3203125,-9.1328125,13.453125,-0.013155459058393326,-0.2825852999953882,2.913907703640019,4.919773243984577,1.70701719488704,9.306524010615147,1.4537339114006558,7.8527900992144914,0.16571204383613303,0.3764828425636572,2.979285844964805,2.9819969502185946,1.7260607883167978,9.163556305286516,0.28437929255002026,8.879177012736495,1.8836280996335857,1.2136313011745041,3.0839889559836706,4.670980699989331,1.7561289690633972,9.276254047844757,1.376087105766292,7.9001669420784655,0.08741365501561749,0.36664706245662765,0.1142534493129359,-0.29621349045539463,-0.3142759920201021,0.9794690392527986,0.5772162589848203,0.5297292318198173
UMAFall_Subject_02_ADL_Hopping_3_2016-06-13_20-39-00.csv,A,MA,8.83848696849385,-4.006147540983607,2.972959294792623,2.578125,-12.0625,14.640625,0.12642187972385832,-0.014520943037731448,4.973794405577612,0.03944672131147541,2.2302005303509396,4.5078125,-4.9296875,9.4375,-0.07821802697359814,-0.23810577240377995,47.343950348734204,-0.022412909836065573,6.880694031035983,16.6953125,-15.953125,32.6484375,0.2294802536447711,0.21690967990154314,18.701627747499547,7.60328240718674,4.324537865194332,18.835167899561913,1.2980040266212582,17.537163872940656,-0.36022381840651496,0.7876329770691197,19.374920917391467,5.692524565327879,4.401695232224906,17.364307214486345,0.20085875206535064,17.163448462420995,0.0004117359546702559,0.9896399661698331,18.54317333845032,7.285049575879897,4.306178507499465,18.220259170447637,1.0481568644530264,17.17210230599461,-0.42088858809283547,0.7780356230795075,-0.11720262919086048,-0.5640230463716474,-0.4572097486319302,0.9971150545895087,0.9409007623921277,0.9352071864979717
UMAFall_Subject_02_ADL_Jogging_1_2016-06-13_20-40-29.csv,A,MA,225.25927384173283,-10.207863729508198,15.008639973086597,15.6953125,-61.4296875,77.125,1.8401990576416747,-1.2153492450076067,104.95086176304218,1.8792264344262295,10.244552784921467,26.8828125,-18.765625,45.6484375,0.28799217784880415,0.7828225631059803,1038.8235125098722,-2.3354252049180326,32.23078516744313,102.7578125,-62.4765625,165.234375,1.7027773353929323,0.6930575930743634,603.4070574071541,29.432321008067746,24.56434524686449,108.99031989834221,1.7684055815285276,107.22191431681368,1.8089729486683277,1.4742332266318587,508.0256492952938,25.185557718893154,22.539424333715665,103.81214312194076,1.767300781073004,102.04484234086776,2.0085000827089896,1.4367452239764589,573.959299881072,28.079613236301938,23.957447691293662,107.98655843093535,0.30338262248355624,107.6831758084518,2.115428816486415,1.532635006798747,-0.17554171284599013,-0.1019058724167664,-0.8451991766765624,0.9981812298701939,0.9778373223656026,0.9765794748763221
UMAFall_Subject_02_ADL_Jogging_2_2016-06-13_20-41-08.csv,A,MA,24204.424318107234,13.873847336065573,155.577711508131,253.9921875,-256.0,509.9921875,-1.0473455866162809,0.07875573668922616,30686.083375190778,11.53547643442623,175.17443699121964,253.9921875,-256.0,509.9921875,-1.1554578404248432,-0.0728652172727,20413.45373028197,5.40484118852459,142.87565828468462,253.9921875,-256.0,509.9921875,-0.30397754863330784,-0.2678182806496515,12769.03578765536,248.72580502498815,113.00015835234639,442.2488341545234,31.921039437791848,410.32779471673155,-1.1334500080490386,-0.16977561957883974,11877.118004268206,196.8291344008249,108.9821912253016,362.03867196751236,20.290614712476216,341.74805725503614,-1.3902112812061742,-0.26175426023822773,10675.422323619485,183.32407908548538,103.32193534588619,360.6217288392855,4.824761166368756,355.7969676729167,-1.1010933267340963,0.265755552770994,-0.18452114388323707,-0.11211112742914198,0.6740245632909997,0.8441536686025362,0.920076683767193,0.6559977748621879
UMAFall_Subject_02_ADL_Jogging_3_2016-06-13_20-41-46.csv,A,MA,18095.7364834478,14.072617827868852,134.52039430304907,253.9921875,-256.0,509.9921875,-0.5944179848670639,0.143777339722663,33023.578099585364,9.90484118852459,181.72390624126857,253.9921875,-256.0,509.9921875,-1.2852964388697676,-0.19221191848662328,24938.64502233286,11.113985655737705,157.9197423450686,253.9921875,-256.0,509.9921875,-0.9090242835393281,-0.23161253983671434,11184.021574565204,253.4365719043388,105.75453453429411,442.2488341545234,67.89126105498939,374.357573099534,-1.3467891480681862,-0.17003600009496317,9998.429308245259,217.71340948121528,99.992146232818,362.03867196751236,39.80241498665038,322.236256980862,-1.293836178775776,-0.18926478249177975,9113.082188859125,183.53956437934255,95.46246481659232,360.6217288392855,18.2569583534693,342.36477048581617,-1.0922852240408405,0.1392132968970952,-0.39657671425905894,-0.41869933625650624,0.7784088820315651,0.8704027811483755,0.940528534371777,0.7277058299576414
UMAFall_Subject_02_ADL_LyingDown_OnABed_1_2016-06-13_20-32-16.csv,A,MA,6189.418031586195,-8.135502049180328,78.67285447717144,228.8828125,-245.953125,474.8359375,3.7589790661669493,-0.45056218199377474,1117.382982164393,-0.11116803278688525,33.42727901227369,123.7265625,-55.8984375,179.625,2.9413903700918844,1.306187493686705,6962.110124298261,4.382172131147541,83.43926008959009,226.15625,-128.40625,354.5625,0.26609641723844835,0.7704235220223216,6673.3539710007035,86.92779774589677,81.69059903685799,316.25861080946527,3.0999877929447157,313.15862301652055,1.094955223399789,1.2427211531560214,3645.680804960668,66.18415705329262,60.37947337432373,227.2673348004177,0.9031466260386516,226.36418817437905,-0.30014865973417937,0.835725411210949,6373.268528760821,82.17378196859471,79.83275348352217,315.461117822641,2.5798881281765396,312.8812296944644,1.4742850575674682,1.3106613752580751,0.08670082543013802,-0.2902232003108864,0.18658625893015066,0.9974025705695687,0.9234264847797473,0.914550872339866
UMAFall_Subject_02_ADL_LyingDown_OnABed_2_2016-06-13_20-32-56.csv,A,MA,492.84098190557756,-5.117571721311475,22.200022114979472,30.6640625,-94.0859375,124.75,4.961139046669635,-1.6691139150360925,450.06962423689384,-0.29764344262295084,21.214844431126377,54.9765625,-60.0546875,115.03125,1.103499118022632,-0.18671879819526463,6419.475862430093,-16.93545081967213,80.12163167603424,163.734375,-201.5,365.234375,0.6554751729334849,-0.3492795854037911,3822.8011126111073,61.60070610737106,61.82880487775182,208.90440306892057,2.8778539672872996,206.02654910163326,-0.0854971579796846,1.1011091875830024,3770.770574465372,57.74836283013976,61.40660041449431,208.86520156387087,2.2846320178600426,206.58056954601082,-0.0421238513509441,1.115901699532625,3633.4028842747894,59.48243696234486,60.27771465703382,201.54063410951557,2.8381211462206823,198.70251296329488,-0.03819398785318384,1.1247130800204932,0.11594026656361774,-0.19551441709767978,-0.8061651384424842,0.9991985698524979,0.9959032828284081,0.9947208910828099
UMAFall_Subject_02_ADL_LyingDown_OnABed_3_2016-06-13_20-33-39.csv,A,MA,1836.4174896073475,3.6563780737704916,42.85344198086482,116.3046875,-119.390625,235.6953125,1.2099564752604266,0.042710285036837846,712.6082675287631,-6.845671106557377,26.694723589667735,58.8984375,-66.8828125,125.78125,0.04406799643009718,-0.3383583659943487,3681.407318315349,-5.428790983606557,60.674601921358736,201.7578125,-146.15625,347.9140625,2.394558376323923,0.34513025784372575,2811.5472282765927,58.75834088251624,53.02402501014604,214.3603773996626,7.189253352715514,207.17112404694709,0.4697560498775335,1.1480735181481032,2025.2245239901022,49.053984608170126,45.00249464185405,206.71189830032952,7.1299025416836,199.58199575864592,2.183222638622903,1.5629861198857586,2698.0819081233276,53.06937420511074,51.94306410025623,209.58715944633906,5.3031915232274285,204.28396792311162,0.6895141920431271,1.2475354309585878,-0.4965810790706567,-0.41033677033515636,-0.020590178576085912,0.9904680152161932,0.9604568708731049,0.9442282318966562
UMAFall_Subject_02_ADL_MakingACall_1_2017-04-26_19-40-37.csv,A,MA,13065.0533550992,-10.438396516393443,114.30246434394667,253.9921875,-256.0,509.9921875,1.0547142291539222,-0.022651302723422494,2505.147734528422,-3.0947745901639343,50.05145087336052,195.4765625,-201.78125,397.2578125,7.362983984138124,-0.055411626056266566,1323.3825735957246,9.68391393442623,36.37832560187075,147.8828125,-86.2890625,234.171875,5.787098642788619,1.6957392478823003,8993.947511397584,89.34455697195757,94.8364250243417,326.97035367540155,2.482298168878741,324.4880555065228,-0.009949108189434064,1.1530625951190867,2456.961600230356,38.11088812702741,49.567747580764205,242.17915156982056,1.9571209123671947,240.22203065745336,5.854952319941537,2.315802946538828,7737.715631465468,82.12448116462208,87.96428611354422,293.9070559614813,1.3460191596426108,292.5610368018387,-0.035618581019892126,1.143565495410694,0.5562777094070918,0.04665090330101546,-0.07329013989568871,0.9881952911163732,0.8149159634008977,0.7325331020088266
UMAFall_Subject_02_ADL_MakingACall_2_2017-04-26_19-41-16.csv,A,MA,9912.696182301006,10.815957991803279,99.56252398518735,253.9921875,-256.0,509.9921875,0.6741164531855985,-0.07893504645702444,2547.1976510803556,-0.17635758196721313,50.469769675325004,102.359375,-123.9765625,226.3359375,0.10406716835536667,-0.30975085304083094,1956.2449155380164,10.966060450819672,44.22945755419137,137.3359375,-72.015625,209.3515625,1.1110274216442662,0.8025875854889876,3728.5515515413385,103.6805255627509,61.06186659070732,272.6481253266573,5.740874637332059,266.9072506893252,0.46101203904972277,0.8148221435359105,1583.5018831407026,54.702453210330596,39.793239163716024,168.3119328457767,4.470613957853692,163.84131888792302,0.5647170117860907,1.1282339547329125,3524.9170056852327,91.89383135469991,59.37101149285931,256.0747647782772,1.5567472222755048,254.5180175560017,1.0982765166415014,1.0684685587755103,0.4343166443691993,0.24807251681530743,0.4733160083130923,0.966103184205301,0.4815550036605503,0.29340238096218435
UMAFall_Subject_02_ADL_MakingACall_3_2017-04-26_19-41-56.csv,A,MA,8524.123584551367,1.9656762295081966,92.32618038536722,213.1796875,-256.0,469.1796875,2.0244447192541726,-0.355919625400151,1874.1806510883603,5.441470286885246,43.29180812911792,210.9140625,-75.4375,286.3515625,8.96597798358667,2.226472163394273,3434.6429354975135,10.845671106557377,58.60582680499878,234.25,-89.6015625,323.8515625,5.782770658147049,1.9868119039385723,8123.850013112689,75.93818186531429,90.13240268134811,329.27184281709845,2.365240019863206,326.9066027972352,0.9562232022052131,1.4215927436343117,3396.5931854399337,45.03465934608098,58.28029843300336,250.94694122377805,1.6352217572282055,249.31171946654985,3.9863080642692905,2.00480966593641,7122.6041006941905,69.84535441250617,84.39552180473909,314.71460013957983,2.3065934915273325,312.4080066480525,1.1583183225849236,1.489337140265105,0.6912414819497033,-0.012260157398611861,0.07483336352771001,0.9902741999138491,0.9198354306610224,0.895296221624488
UMAFall_Subject_02_ADL_OpeningDoor_1_2017-04-26_19-45-05.csv,A,MA,7.099226888020834,-2.828125,2.664437443067642,2.5546875,-8.8515625,11.40625,-0.404135596217428,0.142453671946747,2.890476214299436,0.2104252049180328,1.7001400572598235,2.859375,-4.53125,7.390625,0.6463876994699307,-0.6935351901437257,7.773791704021517,-0.8290215163934426,2.7881520231188106,6.28125,-6.90625,13.1875,0.19418496346121206,-0.07059892180173262,2.9810362077182955,4.82389569423862,1.7265677535846358,8.87638220970754,1.9953253474527657,6.881056862254774,-0.5414050875339527,0.46500870946275363,3.0992971833581233,2.8587602667560277,1.760482088337772,7.274041663951771,0.13002591388354093,7.14401575006823,-0.046408385194854684,0.7289462382685489,3.8837472590490614,4.415278817265802,1.9707225220839846,8.858541351871226,0.2735490843751812,8.584992267496045,-0.15952093781073007,0.07430880671948074,0.18198040065196008,-0.43130179178787126,0.33390905267227183,0.948708798124166,0.4572613796170633,0.3411965696123747
UMAFall_Subject_02_ADL_OpeningDoor_2_2017-04-26_19-45-44.csv,A,MA,4.932504289137211,-2.52984118852459,2.2209241970713927,2.8828125,-8.9375,11.8203125,0.9954734076525611,-0.38474619690551587,2.057892912984546,0.06685450819672131,1.4345357830965897,2.9375,-2.890625,5.828125,-0.029366159918884804,0.1660582598589136,2.3433662789766907,-1.2908555327868851,1.5308057613481505,2.3203125,-4.453125,6.7734375,-0.4907081136926874,0.301382604068289,2.3279982810345357,3.8680473835224722,1.525777926513074,9.285957350012437,1.5463225023422507,7.739634847670186,3.6955028081465136,1.5390696451886219,1.0493488637870905,2.2288424148702584,1.0243773053846372,5.035888050486354,0.35329434545609417,4.68259370503026,-0.26314557312469544,0.056523689711867484,2.4745230702845906,3.576176915197684,1.573061686738505,8.947451299986215,0.7985582711987899,8.148893028787425,2.7390271596046256,1.2005218471922932,0.3509299622489778,-0.31098654672049825,0.15259597725960733,0.9551830715332811,0.32976490483156334,0.2031598901738174
UMAFall_Subject_02_ADL_OpeningDoor_3_2017-04-26_19-46-20.csv,A,MA,4.091300222261356,-3.299564549180328,2.022696275336798,0.765625,-8.7890625,9.5546875,0.14773362197763173,-0.4185888525938,3.092312171810962,-0.010886270491803279,1.7584971344335372,4.0859375,-4.65625,8.7421875,0.4201818411616145,-0.2877704283480041,3.537185518858862,-1.4058657786885247,1.8807406835762506,4.9296875,-4.4296875,9.359375,2.1001000759428745,1.0650365207545514,3.6479928616788015,4.452028834165572,1.9099719531131345,9.665514997959564,1.5484327699221396,8.117082228037424,0.47592194030533586,0.838574036346423,1.6214311568677227,2.627269339257209,1.2733542935364544,5.353176079732947,0.4533943165170909,4.899781763215856,-0.5175585743474138,0.17593982580044384,3.461957037002756,4.118471774428557,1.8606335042137545,9.230481148161372,0.8287144128860074,8.401766735275364,0.02818001388515068,0.5154874018095336,0.2613478344440356,-0.10900729498673677,0.20209063535170627,0.9750735894974883,0.6991963522428956,0.6436423165260905
UMAFall_Subject_02_ADL_Sitting_GettingUpOnAChair_1_2016-06-13_20-34-55.csv,A,MA,182.7225526903497,-5.670978483606557,13.517490621056472,46.609375,-36.7421875,83.3515625,3.4741054045443516,0.7212720106338747,216.57899113222547,0.8306864754098361,14.71662295270982,36.5390625,-39.8359375,76.375,0.72325700928381,0.28512881970636483,1097.88192232059,-1.4642674180327868,33.13430129519242,58.421875,-75.8359375,134.2578125,-0.35548738427328175,-0.39397404612898557,493.22063315136813,31.9765311118489,22.208571164110673,82.749780936974,3.2247933254997134,79.52498761147429,-0.6626001942051105,0.6785505112489939,474.9903525802268,28.784420568967665,21.794273389590824,82.48037541804452,1.2662276728658437,81.21414774517868,-0.35573284486540135,0.7299260699632868,431.65351159323205,29.4845351081251,20.776272803205874,76.25755357693467,2.9525255674697384,73.30502800946493,-0.7357807830933778,0.6386398922734952,-0.19511663604011364,-0.15673430695155768,-0.8708397320204462,0.9912993503741675,0.9849486877122944,0.9717591374791086
UMAFall_Subject_02_ADL_Sitting_GettingUpOnAChair_2_2016-06-13_20-35-34.csv,A,MA,76.0315471044655,-2.6768698770491803,8.719607049888516,18.59375,-27.9296875,46.5234375,0.7719819476153478,0.08970849116784649,779.4744492160818,4.065573770491803,27.919069633784034,85.828125,-58.90625,144.734375,1.8176025592753424,0.8518659233421302,2687.97616964038,-6.482325819672131,51.8456957677335,101.1640625,-163.8359375,265.0,1.9806925436234524,-0.9323827852878686,1788.8530281575286,42.32705749473512,42.29483453280706,184.97884532500856,2.1424205516920574,182.8364247733165,3.13242287340736,1.7883859776654443,1845.6949285882786,40.665943607975294,42.96155174790918,184.9558905726431,1.1675963557668378,183.78829421687627,2.9555822576508977,1.7434505705867205,1384.3634748608924,37.49951071061575,37.2070352871724,163.86185088896627,1.2814643494480251,162.58038653951826,3.3213698819023802,1.8038784835100998,-0.1253896961068466,0.02941201792639973,-0.9719187068271603,0.9961774817018587,0.998381813921086,0.994221115471019
UMAFall_Subject_02_ADL_Sitting_GettingUpOnAChair_3_2016-06-13_20-36-13.csv,A,MA,185.8824556611275,-0.3009733606557377,13.63387163138657,52.9609375,-22.3671875,75.328125,6.517325283917705,2.4099572011022667,15.995112885021772,-1.2082479508196722,3.9993890639723677,6.03125,-14.8125,20.84375,2.4243225112569826,-1.2876579092000697,115.55242803187971,0.0785092213114754,10.749531526158696,22.5703125,-29.6796875,52.25,0.04962932025010769,0.24223255574378644,131.4010067580266,13.584400834100041,11.463027818077848,57.33707120080968,1.4797006995187405,55.857370501290944,4.844263170593294,2.147123704211362,39.43886724827318,9.5950363324094,6.280037201185451,29.80898867227908,1.013489341103916,28.795499331175165,1.118429546394493,1.1322091853466725,129.00752064517542,13.026796752338456,11.358147764718305,56.11201065064245,1.3223218807272306,54.78968876991522,4.415632186130046,2.036693117694877,-0.7592648615151252,0.10677503210523052,-0.34946208326624867,0.9980347264615457,0.7851028591654341,0.7918537728903813
UMAFall_Subject_02_ADL_Walking_1_2016-06-13_20-27-49.csv,A,MA,11920.915842491939,-10.64267418032787,109.18294666518183,203.453125,-230.390625,433.84375,-0.5036684207797131,-0.3772492367426756,15510.939585367838,-18.3125,124.54292266270227,183.9453125,-256.0,439.9453125,-0.7815186877795663,-0.3678713187572761,25889.694786497024,22.245517418032787,160.90274946841967,253.9921875,-256.65625,510.6484375,-0.8867004809788352,-0.4215712116025774,9221.461929481819,210.52461431638923,96.0284433357212,396.16843523575733,42.47030859101928,353.69812664473807,-1.1081951375108487,0.05261004612087489,11536.920471234642,173.79400312363492,107.41005758882471,360.6217288392855,8.78132298123587,351.8404058580496,-1.3748312860648417,0.05352030256242284,6358.53409557309,177.60799047423873,79.74041695133711,344.124433855782,30.87368734557795,313.25074651020407,-0.8535695140898478,0.0365129536957338,-0.12298437755846363,0.0886455558940272,-0.838719734358274,0.9483556891386536,0.9024537801390493,0.7911941603168158
UMAFall_Subject_02_ADL_Walking_2_2016-06-13_20-28-31.csv,A,MA,3348.2776479252057,-4.49359631147541,57.86430374527292,84.328125,-173.109375,257.4375,0.3816148374411603,-0.7743256745402819,3344.50322882647,-10.49718237704918,57.83168014874261,151.0078125,-124.6015625,275.609375,0.6759236750680921,0.8376514105483275,5838.079749535731,-6.257940573770492,76.40732785234496,153.3359375,-124.828125,278.1640625,-0.5178748424676689,0.46204044170497727,2202.944392483796,101.62751201078619,46.935534432706696,185.85264098903102,19.65690206589342,166.19573892313758,-1.0112305795870422,-0.03792725727444208,2048.848669670311,84.65305961804836,45.26420958848515,185.43075066842886,15.919298736616039,169.51145193181281,-0.8645989040502999,0.2811099031580421,1926.0467653932703,84.85660477730308,43.88674931449435,173.7695535099598,9.707228525409878,164.06232498454992,-0.9397192353204713,0.0929186925388525,-0.4468258263967746,-0.24493796865473647,-0.25740674801399804,0.9011063710283554,0.8623411373720875,0.7243346966021139
UMAFall_Subject_02_ADL_Walking_3_2016-06-13_20-29-14.csv,A,MA,11145.80625106728,11.598104508196721,105.57370056537414,249.4453125,-203.8984375,453.34375,-0.5130221916865376,-0.046652135581078884,2433.571958147893,-1.3130122950819672,49.33124727946672,125.53125,-123.921875,249.453125,-0.1006182264580362,0.3049506906476525,10954.400337661158,18.241931352459016,104.66327119702096,253.9921875,-219.1796875,473.171875,0.44872104240273325,0.027501834583734713,5265.557972764816,139.36052595559966,72.56416452192374,304.3237677662417,20.06012842534679,284.2636393408949,-0.7633240807956776,0.44848897632990414,4247.516059136271,96.5665819658341,65.17297031082956,282.61044286181425,7.160086989913251,275.450355871901,0.608199197406817,1.1174974788470864,6069.345165587015,127.4179912879479,77.90600211528644,277.9502195068854,5.213115642975057,272.7371038639103,-1.017682655007067,0.3308320612648248,0.035418780415027905,-0.35274468724355773,-0.4754111310841177,0.9763201113953158,0.8038826107935054,0.7464579664725113
UMAFall_Subject_02_Fall_backwardFall_1_2016-06-13_20-51-32.csv,F,MA,5.358713852512381,-3.4715676229508197,2.314889598342085,2.3984375,-9.3515625,11.75,0.8097287302227705,-0.13029859058027113,4.887170043278261,0.20158811475409835,2.2106944708118896,8.671875,-4.3984375,13.0703125,2.8610087240815565,0.7527717570224393,1.5285286324923153,-1.7205430327868851,1.2363367795598073,0.734375,-2.9453125,3.6796875,-0.877463943547601,0.8977076254960891,3.7386725221936596,4.791314477235712,1.9335647189048677,10.195722573170697,1.472506001950841,8.723216571219856,0.8385272625157181,0.9201445079230623,1.734964699531957,2.757699535491033,1.3171805872893652,9.060465827738936,0.34807295953039785,8.712392868208537,8.544522950866751,1.7421120987232106,3.2880174928857855,4.307234773275704,1.8132891365928892,9.6942327914107,1.4615013951840758,8.232731396226624,1.0312913191078357,1.061902826809182,0.19281684442886055,0.09343991157920276,-0.3691669042266805,0.8898645205657423,0.5964115435061197,0.24475415382647872
UMAFall_Subject_02_Fall_backwardFall_2_2016-06-13_20-52-16.csv,F,MA,20.203284858745302,-2.4488985655737703,4.494806431732662,15.46875,-12.4453125,27.9140625,5.060727928379816,1.4459957105442438,2.262183317590932,-0.44300717213114754,1.5040556231705435,2.4296875,-6.75,9.1796875,8.09776693448382,-2.2909881783246724,1.5913827698087433,-1.9341700819672132,1.2615002060280225,2.5,-6.03125,8.53125,3.110444213702273,0.7886717814133957,8.937923270018072,4.980506987019869,2.9896359761713587,17.76248460590466,1.2169708568434374,16.54551374906122,5.84674753504582,2.258776873770551,1.5609516712066334,2.488433208635772,1.2493805149779764,8.730614686979377,0.7211661156808811,8.009448571298496,11.891773130166523,2.6435692427013233,8.273658254206493,4.799736615004113,2.8763967484000696,16.60295766196493,1.0666280103672507,15.53632965159768,4.982916290190872,2.0957717877979904,-0.6333373312233344,-0.042953114944393335,0.03573278323188476,0.9924309712705547,0.6491759537412563,0.590858215038598
UMAFall_Subject_02_Fall_backwardFall_3_2016-06-13_20-52-55.csv,F,MA,6.889941472955087,-2.9715676229508197,2.624869801143494,5.5,-9.234375,14.734375,1.8400034639311498,0.9087718331533222,0.9502673873484461,-0.3199282786885246,0.9748165916460625,2.71875,-2.6796875,5.3984375,2.270766241763094,0.8100166767210235,0.8868115701310622,-2.042904713114754,0.9417067325505655,0.578125,-3.0,3.578125,1.8911407295357563,1.7164516650133306,2.1977081793771203,4.419083870378915,1.4824669235356047,9.33325994553551,0.7932669543965007,8.539992991139009,1.6270570260496617,0.3638477450680839,0.370958913886622,2.3912128845318152,0.6090639653489788,3.985393558534245,0.6094250780705123,3.3759684804637327,2.0256900832441325,-1.0817043915965119,2.3384481858433035,4.284019855607066,1.5291985436310431,9.299845245058181,0.5078725925982814,8.7919726524599,1.4445727494279144,0.28200138524979335,-0.07776228620265858,0.4037886762611958,0.06575356244832092,0.9884756548161286,0.07084996932259408,0.036041292661092794
UMAFall_Subject_02_Fall_backwardFall_4_2016-06-13_20-58-40.csv,F,MA,1.5412498599193136,-3.3493852459016393,1.2414708453762873,-1.09375,-4.9453125,3.8515625,-1.5727798026800948,0.35069546526645556,0.6140128714139347,-0.1834016393442623,0.783589734117245,2.1875,-0.9921875,3.1796875,-0.392643948735814,0.8903941022607887,0.07360059394211066,-2.5810706967213113,0.27129429397263527,-1.03125,-2.984375,1.953125,17.145648758923137,3.2744241010436066,0.8124758324225175,4.393985850456061,0.9013744130063364,5.678376310137542,2.8368412816072825,2.84153502853026,-1.5398556995243249,-0.2644434319344536,0.07840279930888677,2.700886096957001,0.28000499872124923,3.563048203434806,1.3225987971130928,2.240449406321713,10.056830292971348,-1.7146771309206832,0.8344650697224942,4.3183213923997465,0.9134905964061667,5.5951573823095,2.7626882359510816,2.8324691463584184,-1.5231477414934198,-0.26621514698667165,0.0782470838327625,-0.18235304289035184,-0.16880213677078965,0.9977127319902717,0.0074163767037378646,-0.023638363780214354
UMAFall_Subject_02_Fall_backwardFall_5_2016-06-13_20-59-19.csv,F,MA,2.703669880517845,-3.1234631147540983,1.644284002390659,0.796875,-6.2421875,7.0390625,-0.11302990067027041,0.6239714232197981,0.7166759053214652,-0.22899590163934427,0.8465671298375961,2.2265625,-2.265625,4.4921875,1.1663185128115208,0.9931687161453588,0.30607930167776637,-2.4444159836065573,0.5532443417494357,0.1875,-2.984375,3.171875,9.276099915753589,2.7830203875738677,1.4068598132470636,4.250314113938436,1.1861112145355779,7.0270256407294225,0.8513832953640799,6.175642345365342,0.3460396353051367,-0.45248368370042397,0.2558794449237948,2.6042105621761373,0.5058452776529546,3.4263045673555133,0.578125,2.8481795673555133,4.828238698831787,-1.8900229004728077,1.4927370298083735,4.150100532619582,1.2217761782783185,6.664946270530806,0.6525191568069094,6.012427113723897,0.24784323842641554,-0.5241102361251058,-0.017384143388450336,0.2827074075696973,0.05959226673476119,0.9939885810102053,0.45765590672499373,0.42648586160278035
UMAFall_Subject_02_Fall_backwardFall_6_2016-06-13_20-59-59.csv,F,MA,2.6876807374380975,-3.7410348360655736,1.6394147545505675,0.0,-8.703125,8.703125,0.45183026283916883,-0.10971678686487481,1.199389281559512,0.15778688524590165,1.0951663259795346,2.6171875,-2.4921875,5.109375,-0.22854973051616456,0.5400796833641602,0.6784636617358265,-2.285732581967213,0.823689056462344,0.5234375,-3.0,3.5234375,4.3318991947523955,2.1824376141352806,1.9977442062158852,4.6658875197734355,1.4134157938186078,9.180192805241415,0.5470981687503624,8.633094636491052,1.3746484754112078,0.08037205237250822,0.3082999102853242,2.60639459653403,0.5552476116880866,3.7762832178487686,0.5470981687503624,3.2291850490984064,2.688673760241776,-1.2941664043841479,2.0861771717155793,4.5253617799109085,1.444360471529036,8.799219825146432,0.015625,8.783594825146432,1.5234058574874796,-0.22575843580925045,-0.10833982742568478,0.05289791007579652,0.2398549052303295,0.9894435949499856,0.4037174617614666,0.39554167839838494
UMAFall_Subject_02_Fall_forwardFall_1_2016-06-13_20-43-52.csv,F,MA,1.6526259792307036,-3.825563524590164,1.2855450125260894,-1.15625,-6.546875,5.390625,-0.4842457850015025,0.4508545366297176,2.5709849206476263,-0.15765881147540983,1.6034291130722387,4.4140625,-4.7890625,9.203125,2.1012696046264585,0.04809480004020538,1.1079389728483606,-1.8876793032786885,1.0525868006242338,0.6796875,-2.984375,3.6640625,0.6095507200986461,1.3714265905165075,1.2246418925089513,4.718337350531813,1.1066353927599422,8.145399571518116,2.009331866761001,6.136067704757115,1.3648580658300578,0.009534751325066404,0.8032561496161623,2.533123586124533,0.8962455855490515,4.8627274408568795,0.5031638183782693,4.3595636224786105,1.367901652975557,0.14015633744344555,1.2552863829266818,4.436087386875834,1.120395636784918,6.5888097977389855,1.292726799492066,5.29608299824692,-0.0032442626768989236,-0.7085841991048956,0.4160572844296042,-0.1171859397702678,-0.08166287968025393,0.8890174358177846,0.4112450038180101,0.09198498088420083
UMAFall_Subject_02_Fall_forwardFall_2_2016-06-13_20-45-53.csv,F,MA,1.7909413155310794,-3.7588370901639343,1.3382605559199148,-1.0390625,-6.75,5.7109375,-0.4825957685008455,0.5582604843727687,0.694017387348446,-0.2808657786885246,0.83307705967002,2.59375,-2.4921875,5.0859375,1.4336804004574528,0.7589721979720779,0.7844188252433402,-2.1694415983606556,0.885674220717381,0.7890625,-3.0,3.7890625,4.756522232015539,2.2987678160933367,1.3910605851801727,4.55650563114311,1.179432314793932,6.929106162199512,1.2695973540482235,5.659508808151288,0.41494312391871313,-0.7821631148057228,0.3581825227016184,2.4263658647528303,0.598483519156224,3.668116427405215,0.4680333062734425,3.200083121131773,3.0597483205651486,-1.54234881748574,1.4321390058074284,4.467640644006104,1.1967201033689658,6.913232647939114,1.2634288430324243,5.649803804906689,0.20226770187900378,-0.6948613464510394,0.08936627787991354,0.15464431109668164,-0.13208621909489338,0.992916082844879,0.44544994731500304,0.40612673603011107
UMAFall_Subject_02_Fall_forwardFall_2_2016-06-13_20-48-20.csv,F,MA,1.254625030684341,-4.038422131147541,1.120100455621879,-1.0546875,-6.7578125,5.703125,1.0331204591439542,0.9231704599006582,0.510114859492401,-0.45120389344262296,0.7142232560568166,2.1015625,-0.9921875,3.09375,2.2814603142028993,1.8212759439704647,0.31652255032231896,-2.3466956967213113,0.562603368566452,0.3984375,-2.96875,3.3671875,14.106093426960912,3.555022426206471,0.6627046178468065,4.838876081507939,0.8140667158450875,6.857946712061034,2.8364109453288413,4.0215357667321925,0.5696546865247187,-0.7597884187706878,0.18918950157776995,2.5174518047017806,0.43495919530200755,3.0658862019202537,0.5800222247897058,2.485863977130548,9.184093494724356,-2.841704637350087,0.6987731230509016,4.761712637243675,0.835926505771232,6.854701924705589,2.7999829972977066,4.054718927407882,0.5049960199318217,-0.7435689592199729,0.19099862868380643,-0.36275498465454226,0.11204201252906149,0.9971920093052815,-0.2477278649743442,-0.26038129971275675
UMAFall_Subject_02_Fall_forwardFall_3_2016-06-13_20-47-36.csv,F,MA,4.7871020040876875,-4.340548155737705,2.187944698589909,-1.4453125,-18.4296875,16.984375,29.130681856416878,-4.485027637370479,4.031540167136271,-0.3633452868852459,2.0078695592932005,6.921875,-9.234375,16.15625,12.034310052875416,0.7120514201904362,0.5735388583824282,-2.4780993852459017,0.7573234833163621,0.234375,-5.546875,5.78125,8.801690391821834,0.33126487443114777,6.484696370871726,5.288967349940857,2.54650669955367,21.347011155051806,2.5724487702928607,18.774562384758944,27.010900489774883,4.581201471455897,2.456190580482056,2.895972570012991,1.5672238450464107,10.772256212430616,0.8128379705736255,9.95941824185699,13.238356415235648,3.4561119699565754,4.574226621572103,5.074924340282926,2.1387441692666522,19.24632961406619,2.556502604420001,16.68982700964619,32.823904578334044,4.971996174254481,0.2952365514327339,0.5372834054318574,0.0011311761406243598,0.9837731377789913,0.8922855025944589,0.8120904876071378
UMAFall_Subject_02_Fall_forwardFall_4_2016-06-13_20-53-39.csv,F,MA,0.9840959392610145,-4.014472336065574,0.9920160982872276,-1.1328125,-5.0,3.8671875,1.800992092296089,1.7673065258323433,0.4833418048796106,-0.42482069672131145,0.6952278798204302,0.9921875,-0.9921875,1.984375,0.014212900153153907,1.3589611019345469,0.15835741387038932,-2.4074026639344264,0.39794147040788463,0.0078125,-2.828125,2.8359375,24.03069643758289,4.362061423242566,0.5993443594734091,4.80641988219752,0.774173339423032,5.683742749335599,2.6159045362873528,3.0678382130482467,1.04823483870073,-1.4669704854814345,0.10787782128666051,2.5497314442298573,0.32844759290739295,2.9721711373222184,0.7344165546753763,2.237754582646842,16.59821692543794,-3.4434473667824257,0.6223104849887097,4.735313258828017,0.7888665825022059,5.618398904492276,2.526060459552087,3.092338444940189,1.0792132151264013,-1.4848025642171838,-0.1686119828897773,0.05347327485741804,0.0038593037860743667,0.9995748889071983,0.26342621190869275,0.25789821287238734
UMAFall_Subject_02_Fall_forwardFall_5_2016-06-13_20-54-39.csv,F,MA,0.9894004946849385,-3.9084272540983607,0.9946861287285244,-1.59375,-4.875,3.28125,0.88984307967434,1.5848492836166523,0.5011437254525273,-0.48142930327868855,0.7079150552520601,0.984375,-1.0,1.984375,0.37963202814231334,1.501331690329429,0.40521073471653,-2.311219262295082,0.6365616503658778,0.2421875,-2.9765625,3.21875,9.887764880007204,3.093988745298935,0.8985467797433339,4.672277041566234,0.9479170742967624,5.79344680470152,1.871513685913758,3.921933118787762,2.1552456339564783,-1.7830671078926676,0.2068089163451972,2.502316174376905,0.45476248344074865,3.1302397478318253,0.7584565562088906,2.3717831916229346,6.883807106457461,-2.4640531259891727,0.956607954955415,4.587849275192073,0.978063369601078,5.711877915047402,1.7071519193619675,4.004725995685434,2.3160982036535236,-1.8208582912221964,0.09305605395175169,0.5432308482495932,0.029470784840087128,0.9996478707175429,0.73887207562891,0.7441654671067403
UMAFall_Subject_02_Fall_forwardFall_6_2016-06-13_20-55-19.csv,F,MA,0.8820424231023737,-4.070184426229508,0.939171136216597,-1.515625,-4.9921875,3.4765625,2.329997996951886,1.9461182488999116,0.36469423054345973,-0.5951588114754098,0.6038991890567992,0.984375,-0.9921875,1.9765625,2.844625817608689,2.1284592706095675,0.12762144328466532,-2.4454405737704916,0.3572414355651725,0.0078125,-2.8671875,2.875,37.9720468152379,5.520872363623685,0.5135105375813929,4.873143767478936,0.7165964956524647,5.687440976685495,2.774449639258433,2.9129913374270617,2.199327621758374,-1.8180480138532973,0.08146866127647412,2.5958631370594927,0.2854271558147089,3.03146141337495,0.765664858656351,2.265796554718599,28.340322809650196,-4.452918518042772,0.5379628147639376,4.796931218066641,0.7334594840643467,5.6043294247198965,2.635442399413237,2.9688870253066595,2.2052565948198186,-1.8229092589697011,-0.050913900088507304,-0.013425431466269887,-0.025038701774675567,0.9997017516419288,0.16038608092300558,0.1534241408352364
UMAFall_Subject_02_Fall_lateralFall_1_2016-06-13_20-49-17.csv,F,MA,6.147552256766564,-4.286372950819672,2.4794257917442426,-0.1796875,-11.1484375,10.96875,1.8437881085944827,-1.2967581077519914,0.8033107069672132,-0.04994877049180328,0.8962760216402161,2.2109375,-2.2890625,4.5,0.015217905220469952,0.5322256687866536,0.7017484404350238,-2.2205430327868854,0.8377042678863609,0.8671875,-4.3515625,5.21875,4.292045129107059,1.6503285985962535,4.703411464373999,5.119292110580204,2.168734991734582,11.715866832826807,1.0794545696641198,10.636412263162686,3.0446534490204584,1.6700368568663404,0.45707721063640855,2.442152359118406,0.6760748557936529,4.435608366620214,0.5923606277271051,3.8432477388931092,1.7821006585365025,-0.691159874696047,4.792986074990992,5.032535045125226,2.1892889427827913,11.684306152010322,0.8856081288089558,10.798698023201366,2.8961722620274273,1.626558626747253,-0.1071990154818199,-0.10427429830783311,0.06398014269978661,0.9984796776650843,-0.016125774633576468,-0.02908094909250685
UMAFall_Subject_02_Fall_lateralFall_2_2016-06-13_20-50-00.csv,F,MA,1.4322981037077358,-3.2216956967213113,1.1967865740004504,-1.21875,-4.9453125,3.7265625,-1.3318592202117012,0.32517837457626353,0.4635672480682206,-0.4176485655737705,0.6808577296823622,0.984375,-0.984375,1.96875,-0.02183720015251156,1.3318097098301382,0.25734359657829575,-2.4262295081967213,0.5072904459757701,-1.0234375,-3.0,1.9765625,2.6013553010950616,1.8569506859340954,0.7306941286866023,4.223687727286912,0.8548064861046636,5.798190972595461,2.7374201793442765,3.0607707932511845,-1.2290966995339272,0.04180538616991266,0.23568514466201337,2.5570082383682218,0.48547414417455165,3.127196493691474,1.194980550312431,1.9322159433790431,2.6133997132787776,-1.8484393054650428,0.7507668326472271,4.146009679810596,0.8664680217106844,5.728161014957702,2.6326734013700315,3.0954876135876703,-1.247447434630592,0.03218162998943185,-0.11762922248257184,-0.22522275435065406,-0.0920306549151443,0.9995717417159637,0.06850654659019047,0.059600849445727855
UMAFall_Subject_02_Fall_lateralFall_3_2016-06-13_20-50-52.csv,F,MA,1.6360688756723871,-3.1761014344262297,1.2790890804288757,-1.0234375,-4.96875,3.9453125,-1.3497824204054831,0.24667163708579212,0.5581157079811304,-0.41124487704918034,0.7470714209372022,0.9921875,-0.9921875,1.984375,-0.5504751483610635,1.1598744934887695,0.365753507353569,-2.3251793032786887,0.6047755842902134,0.25,-2.921875,3.171875,12.481163990220951,3.455121510194044,1.1751373760195964,4.126172624476736,1.0840375344145592,5.648097111112954,1.353029370177344,4.29506774093561,-0.4809300120808069,-0.5107702344452685,0.17590620686351618,2.512226594298867,0.41941173906260204,3.0523288528238974,0.8277195351725426,2.224609317651355,9.158909770938365,-2.783639362969854,1.2538247096006188,4.028624396818827,1.1197431444758297,5.565752428706855,1.0258499715175216,4.539902457189333,-0.2415714872040562,-0.591653069227067,-0.11196836578761181,0.28553574754103866,0.07044884952756725,0.9993795680737003,0.5178310793662741,0.5309054818259651
UMAFall_Subject_02_Fall_lateralFall_4_2016-06-13_20-56-03.csv,F,MA,13.845519819415983,-2.974513319672131,3.720956841917947,14.8125,-11.6953125,26.5078125,10.183344257550928,2.4086375134244626,3.7929426349577353,-0.17674180327868852,1.9475478517761085,7.9765625,-6.140625,14.1171875,6.0276744590967475,0.7337377074780576,2.309070091039105,-1.8025102459016393,1.5195624669749859,3.421875,-3.53125,6.953125,3.686164733104393,2.068189639176405,6.5058486053694775,5.0348126882864195,2.550656504778618,14.993628611039465,1.03157546947315,13.962053141566315,4.2306589608775775,1.7398113730796159,1.5605329576816935,2.7833990249183773,1.2492129352843309,8.373298130487846,0.4003477492287174,7.972950381259129,6.997229476098315,1.9907256530371589,5.803584608155948,4.719967093770184,2.409063014567271,14.981240303631614,0.7164535323818985,14.264786771249716,5.6995110746392985,1.854960363214257,-0.06871410010086858,0.11314683801373358,-0.30881359214171017,0.9610533870401458,0.6014327461858336,0.40728185573510545
UMAFall_Subject_02_Fall_lateralFall_5_2016-06-13_20-56-57.csv,F,MA,13.341751048603998,-3.0146004098360657,3.6526361779684544,7.3984375,-14.078125,21.4765625,2.1479046879511854,0.11698661691782447,5.3820431902108945,-0.2426997950819672,2.319923100064072,2.9375,-13.3203125,16.2578125,17.89868260168837,-3.5029675381604988,3.219780727032104,-1.9179047131147542,1.794374745428642,6.828125,-6.2578125,13.0859375,15.339115545040366,3.3419001908543855,7.69120456681614,5.1811004905094915,2.7733021052197215,16.69703247749993,1.6324386533745303,15.064593824125401,7.105657973972866,2.4114126294113043,4.017005222196815,2.8717450116528322,2.0042467967285904,14.96843399000982,0.21452390965228096,14.753910080357539,22.86430960009146,4.21402179659487,5.983821202284517,4.8135724365128985,2.446185030263352,15.406291597940799,1.4618354526501949,13.944456145290603,6.032067456941361,2.105273713696388,-0.4629851706325663,0.4600763668992293,-0.5434862558183511,0.9175044880332928,0.6632253183365012,0.3654535107040396
UMAFall_Subject_02_Fall_lateralFall_6_2016-06-13_20-57-48.csv,F,MA,2.186097625565659,-2.9773309426229506,1.4785457806796714,0.5625,-6.7578125,7.3203125,-0.22563874544385287,-0.34555082558922096,0.40771491045508884,-0.25499487704918034,0.6385255754118928,0.984375,-1.0,1.984375,-0.5685724116010906,0.9613455769430819,0.5772961559191427,-2.2459016393442623,0.7598000762826644,0.140625,-2.953125,3.09375,2.481634845384195,1.7664570139359184,1.3533515592264649,3.9700823591314163,1.1633363912585495,7.286587702866308,1.8039432989374278,5.48264440392888,0.1354346191712006,0.6791335470484556,0.4322904798931891,2.377552555505474,0.6574880074139673,3.0303337049376675,0.234375,2.7959587049376675,1.4138621742199344,-1.525633729733984,1.3870962440598968,3.906700525791852,1.1777505016173404,7.238478351674214,1.6406436010850285,5.597834750589185,0.1497518885636473,0.6359154346833088,-0.2123678543796264,-0.030319158987652885,0.24005408289189117,0.999284985976499,0.2583307470136667,0.2600184041009121
UMAFall_Subject_03_ADL_Aplausing_1_2017-04-14_23-57-50.csv,A,MA,358.9761045362129,2.830174180327869,18.946664733831465,45.484375,-43.609375,89.09375,0.3008303293662169,0.579079245352037,177.17042883367483,5.373719262295082,13.310538262357193,36.3984375,-12.390625,48.7890625,-0.35584184633867855,0.9044964214814474,132.30750428913723,0.32953381147540983,11.502499914763627,42.6875,-25.796875,68.484375,4.640544371676673,1.2985434903608337,263.9369680569333,20.85380011809422,16.246137019517388,55.53330035870792,2.581023465392411,52.952276893315506,-0.9375530666992926,0.7351174554922069,150.63369297578524,13.609764415780939,12.27329185572417,45.70093277327779,0.7362840877083383,44.96464868556945,-0.12664979369071894,1.0199668403567181,207.21391349782755,16.95674772767914,14.394926658299706,49.56782216459207,2.378004883628816,47.189817280963254,-0.5398004846076501,0.9396251481190545,0.5634535842434321,-0.07867800199032053,0.4519296853927435,0.9480495581274089,0.8506253521516739,0.7113933596773202
UMAFall_Subject_03_ADL_Aplausing_2_2017-04-14_23-58-27.csv,A,MA,278.2309145401085,-4.861039959016393,16.68025523006493,39.6640625,-63.03125,102.6953125,3.0952311340863075,-0.20483080535580947,238.1126869743639,0.052638319672131145,15.430900394156003,37.6640625,-36.9921875,74.65625,0.40323571522296,0.338975738324494,162.8129937844199,-0.8288934426229508,12.759819504382493,32.6953125,-23.4375,56.1328125,0.8667008645177274,0.8117241978631837,286.55062891976155,20.260536705895564,16.9278063823923,76.75074474457988,1.8986786112320326,74.85206613334785,1.282544824205348,1.211791556864292,166.20421978808963,15.217207473771818,12.892021555523774,49.875495621362624,1.6328872590541117,48.242608362308516,0.2215182918782248,1.0247044858776277,212.15137630904772,15.794206825524359,14.565417134742408,67.24771284447152,1.1594392249731118,66.08827361949841,1.8339523006868665,1.418526067747015,0.5292386150334282,0.5319032837111615,0.9054289203725627,0.9617142248473476,0.9033255368581511,0.7875946162264691
UMAFall_Subject_03_ADL_Aplausing_3_2017-04-14_23-59-06.csv,A,MA,8709.343213824497,-4.004482581967213,93.3238619744409,253.9921875,-232.21875,486.2109375,1.7275413948790304,-0.24610761243250623,416.4124246566022,-5.648693647540983,20.40618594094943,32.03125,-50.9375,82.96875,-0.5064451041173919,-0.2824897748647469,1127.5937949592299,4.780353483606557,33.579663413429714,84.53125,-66.984375,151.515625,0.779281618158389,0.8162928655150925,4962.762360725849,72.6267962751868,70.4468761601666,262.87185413112593,7.987191436968395,254.88466269415753,1.1374444500379246,1.47384108703917,599.2515230549998,31.369195622489244,24.47961443844653,90.39653313664745,3.358048429938511,87.03848470670894,-0.2782178953821268,0.847626308101013,5252.514886072785,67.4400127658677,72.47423601579243,262.676488870199,1.0434002501587059,261.6330886200403,1.108533800622606,1.469883600088297,-0.2303466017167373,-0.8495522149753388,0.4447044415736418,0.9958751963800764,0.8163520274739233,0.7837771985674787
UMAFall_Subject_03_ADL_HandsUp_1_2017-04-14_23-52-34.csv,A,MA,4699.028407429344,-15.220286885245901,68.5494595706585,154.296875,-165.90625,320.203125,0.7711863827581911,0.002258301157177218,1584.4549977120153,-2.7333504098360657,39.80521319767067,114.1328125,-68.2890625,182.421875,1.676202412043149,1.2148722001599375,684.5053907383987,3.861296106557377,26.16305392606908,77.6875,-42.3515625,120.0390625,0.980164585887513,0.7895884337039908,2845.1021208526745,65.64553536862775,53.339498693301145,202.8351731897359,11.72247076348588,191.11270242625002,0.3691007987852277,1.2540762720256449,902.1999365467071,36.969384021668134,30.036643230339624,131.82548338180922,1.880152425877022,129.9453309559322,2.985823941049791,1.7046148858653565,2451.449564173554,55.95162213761324,49.51211532719597,172.7508995375006,1.8789346736415558,170.87196486385903,0.13259540055461638,1.1801399148054235,0.7943892339543103,0.7084024542773784,0.7248080614028599,0.9845331047749403,0.8456890574765917,0.7551044355744478
UMAFall_Subject_03_ADL_HandsUp_2_2017-04-14_23-53-12.csv,A,MA,2.5943701905630974,-3.4777151639344264,1.610704873824841,-1.046875,-8.328125,7.28125,0.25735816203565953,-0.5729289856087826,1.2190864938204404,-0.001793032786885246,1.1041224994630081,2.59375,-2.359375,4.953125,0.37363119344994455,-0.3501410037700407,3.6387890091359294,-1.2613985655737705,1.9075610105933518,2.84375,-4.765625,7.609375,-0.6249727074380274,0.18835794110555018,2.932156593093011,4.258124187569638,1.7123541085572842,9.612651880302074,1.4782356591770136,8.134416221125061,0.7407750123146588,0.6453946279178312,1.5425218480897187,2.2027558083339485,1.2419830305160044,5.020672596407029,0.06987712429686843,4.95079547211016,-0.3935397216818073,0.29582303084243394,2.968648709168936,4.110550209862736,1.7229767001236367,9.595251307613053,1.3396102657349638,8.25564104187809,0.7137829037531551,0.6956061734870657,0.13760528753809745,0.339790484541932,0.2841327612078788,0.9917320243373718,0.6972409348298946,0.6610041760807779
UMAFall_Subject_03_ADL_HandsUp_3_2017-04-14_23-54-54.csv,A,MA,4.734809283480618,-2.948642418032787,2.1759616916390367,2.5234375,-6.8359375,9.359375,-0.11316324317599502,0.2873729396876875,1.6491978046021174,0.2195184426229508,1.2842109657692997,2.71875,-2.5234375,5.2421875,-0.17674758790521716,0.13798220043262222,1.771357135043118,-1.4564549180327868,1.330923414416892,0.8984375,-4.4140625,5.3125,-0.8222521934554563,0.1804472892605254,2.18752116360838,4.090715212658323,1.4790271003630664,7.151787978475208,1.205304438331868,5.9464835401433405,-0.2683284603019036,-0.016448933308666744,1.081939473898916,2.1141728364078847,1.040163195800984,4.416301976148286,0.5000610314314143,3.916240944716871,-0.8842899848542953,0.30367310513986523,2.4875536712340067,3.8429789080187917,1.5771980443920182,7.1277449824721035,0.3125976409959774,6.815147341476126,-0.15170091505548822,0.026532246933391408,0.30315117245581136,-0.2637038175544435,-0.1926352245886565,0.9785847415934004,0.08951608858394498,-0.008569507521777002
UMAFall_Subject_03_ADL_MakingACall_1_2017-04-14_23-49-17.csv,A,MA,2871.4125078044954,-11.170722336065573,53.585562494057065,95.4921875,-215.0546875,310.546875,2.8330279667050853,-0.6390467298676744,6835.141881757227,31.130251024590162,82.67491688388459,253.265625,-49.921875,303.1875,1.4518940551244501,1.5326454774334959,6460.257075141949,31.31608606557377,80.37572441441476,253.9921875,-36.0390625,290.03125,2.607727122109295,1.9180504976850499,9355.707048601082,93.66974847563203,96.72490397307759,360.2065293334007,3.318841585953787,356.8876877474469,1.9792290978504798,1.7283046814635619,9434.816241225764,75.80952611481804,97.1329822523007,352.40484867289223,3.188237123714491,349.21661154917774,2.916425542784305,2.028401984416007,5191.816251381198,71.95463270341041,72.05425907870539,264.7104034927323,1.6167156618434795,263.0936878308888,1.6599077750427096,1.6312820123475347,0.47069968679123103,0.23510805703532292,0.8964216134009318,0.9815050870836894,0.9575844128155019,0.9017347182703924
UMAFall_Subject_03_ADL_MakingACall_2_2017-04-14_23-49-56.csv,A,MA,11.280875050695867,-3.8507940573770494,3.3587013934995573,2.8203125,-10.703125,13.5234375,-0.6739973969540407,-0.1764660765252656,8.866354420146001,-0.12154200819672131,2.977642426508932,6.7265625,-6.0703125,12.796875,-0.5099967874818221,0.02896037397003815,6.055266266702954,-1.0536629098360655,2.460745063329998,8.28125,-6.609375,14.890625,4.997756498976457,1.5635195483303377,7.518670007500719,5.859276948959871,2.7420193302565754,12.215080471203157,1.7094921120759814,10.505588359127175,-0.5961424010608094,0.4095956649022693,3.8026112316071847,3.472997062917548,1.950028520716347,8.35113495748482,0.2672286152576105,8.083906342227209,-0.460047159622075,0.6173999191486529,7.592382149907754,5.052014035069733,2.7554277616928653,11.06541551005457,0.3638478444435943,10.701567665610977,-0.8443561763879543,0.29563241843138083,0.8123321932392491,0.18357770518752461,-0.11789830932989463,0.9495626640602535,0.6231335243468661,0.46220823999436783
UMAFall_Subject_03_ADL_MakingACall_3_2017-04-14_23-50-36.csv,A,MA,2.5407976661223524,-3.7895747950819674,1.593987975526275,-1.0234375,-6.640625,5.6171875,-0.9344947488537412,0.2843161127176648,2.2412396873932723,-0.41969774590163933,1.4970770479147932,2.765625,-4.1015625,6.8671875,-0.10330027957391463,-0.06470259573684789,2.061095124124829,-0.8583504098360656,1.435651463317204,2.390625,-4.375,6.765625,-0.12854825105539192,-0.2547501402384444,2.186066841703552,4.455839881452659,1.478535370460765,8.140861170998358,1.3352291616282577,6.8056320093701,-0.31096599216324083,-0.07334874015956368,1.2713448829527403,1.9733760901210247,1.1275393043937494,5.013324530844029,0.2941901622462927,4.719134368597737,-0.10502029115156208,0.5927036270873012,2.1655489196859876,4.182588476134803,1.4715804156368715,7.032126681457218,1.2902220163841958,5.741904665073022,-0.5254125557012843,-0.28791038702457333,0.16008312135229336,-0.10289184949185938,-0.08223676657884446,0.9704688720984319,0.44835589986808483,0.31525857099625937
UMAFall_Subject_03_ADL_OpeningDoor_1_2017-04-14_23-55-44.csv,A,MA,1534.7738582757,-7.732838114754099,39.17618994077525,33.765625,-198.4296875,232.1953125,10.683434845925158,-3.0253347797983,526.9791513578488,2.8739754098360657,22.9560264714486,82.3125,-31.59375,113.90625,1.1579282695395507,0.9573328887617799,1096.4618654344906,6.532146516393443,33.112865557581856,112.2265625,-53.28125,165.5078125,1.853891171978388,1.0842486060680512,1727.5769516884661,38.96036833431376,41.56413058983029,242.3726260701981,1.177616145081346,241.19500992511675,10.328224648262815,2.826529104636376,731.9231410510234,30.4603266785829,27.0540780854019,139.1766826261368,0.40534755534602646,138.77133507079077,3.835953537067849,1.6225593112834489,1681.1501653057105,32.20211342034101,41.001831243320225,227.96741480289253,0.6111752254877483,227.35623957740478,9.829304368381404,2.875116536411673,-0.37302230808700476,-0.7618948474106014,0.6774075201051993,0.9829870000211997,0.9433281982510195,0.8960025445260056
UMAFall_Subject_03_ADL_OpeningDoor_2_2017-04-14_23-56-22.csv,A,MA,10.128146312275874,-3.0713370901639343,3.1824748722143705,6.6796875,-10.671875,17.3515625,1.3376285958802052,-0.19790754971962143,40.52364408566002,2.7055584016393444,6.365818414442876,17.84375,-13.265625,31.109375,0.41265592682145646,0.2102035448117147,19.211386125074707,0.7357838114754098,4.38307952529665,12.515625,-11.7734375,24.2890625,1.1850802148629853,0.3171683888188971,26.770002125103314,7.725365008807128,5.173973533475341,23.752005723283798,0.5972859351108563,23.15471978817294,2.3750564873327384,1.552675610149818,25.811596204289973,6.420960692871212,5.080511411687801,21.7762349073085,0.42454306778729767,21.3516918395212,1.8088764752906794,1.421687252878737,11.98968540745643,5.199991600641154,3.4626125118841165,16.064758854423594,0.5856770254372285,15.479081828986367,2.5117524779919416,1.5204880396130471,-0.3606419451529533,-0.47627007163373103,0.9313694541478177,0.9123723031147001,0.962500634768303,0.7978715819721428
UMAFall_Subject_03_ADL_OpeningDoor_3_2017-04-14_23-57-06.csv,A,MA,8751.67347432121,-0.3662909836065574,93.55037933820049,253.9921875,-256.0,509.9921875,2.562914717558831,-0.34717824983328605,129.77861258084658,-1.837858606557377,11.392041633563608,29.8203125,-26.5078125,56.328125,0.3428188827422831,-0.030902106985389196,670.6414117531698,-2.9773309426229506,25.896745196127828,64.1640625,-52.5234375,116.6875,-0.0986088853933671,0.6458373625051695,4851.788338775382,68.08544168774456,69.65477972670205,261.60315929219996,1.4758389430888115,260.12732034911113,2.3492402006391995,1.7213033192201626,222.27160974514183,24.102132592912994,14.90877626584898,65.11071972228464,1.457109791783893,63.65360993050075,-0.06598536312652747,0.7070890826583666,4889.130349942015,66.84211774148544,69.9223165372974,260.2266544421015,0.42252554009343624,259.8041289020081,2.319243974842605,1.715318070016619,0.15742289556111416,-0.6116143480339614,-0.22320469175852034,0.9996586995457408,0.6063414971894384,0.6009378266876798
UMAFall_Subject_03_ADL_Sitting_GettingUpOnAChair_1_2017-04-14_23-46-20.csv,A,MA,266.77286900588075,-1.9573514344262295,16.333183064114625,46.6875,-28.546875,75.234375,1.6174943400424375,1.1782222341553088,62.979290971599646,0.5069159836065574,7.935949279802615,14.5,-24.9453125,39.4453125,3.251486695817383,-1.3768830085391413,74.83256515753074,-1.0863217213114753,8.650581781448617,18.75,-27.984375,46.734375,1.9954068045518882,-0.4173708867492465,145.20991441981624,16.13663682346405,12.05030764834725,50.22379481311311,2.4629703905104603,47.760824422602646,1.0198526669738168,1.2841702328702005,54.64185360054463,9.123794088032216,7.392012824701038,30.342009033797204,1.05445599311031,29.287553040686895,0.859478306240824,1.2522995312906673,130.3627355119538,14.58735833218754,11.417650174705555,49.00788784766247,1.6418150445848034,47.366072803077664,1.8758438856381883,1.4653341774909328,0.5715652680876023,-0.12661291857001358,0.045337739177351656,0.9786914608504385,0.8343088232039025,0.7487949032758382
UMAFall_Subject_03_ADL_Sitting_GettingUpOnAChair_2_2017-04-14_23-47-37.csv,A,MA,1270.9770763626516,-1.6207735655737705,35.650765438664166,135.8984375,-91.6484375,227.546875,3.5383626952684573,0.6358106861442091,912.434190660487,6.697105532786885,30.20652563040786,91.7421875,-33.09375,124.8359375,1.053589443316505,1.1321523287593422,309.16334762156345,-5.144467213114754,17.58304147812782,34.2265625,-46.2890625,80.515625,0.33764609255814015,-0.18809175272734818,818.0939437239758,41.48462173497196,28.602341577639685,141.82931576218758,5.641625820145399,136.18768994204217,2.5015673158688614,1.6044189080337623,419.3680263914432,29.332490072291645,20.478477150204387,94.9936280372309,3.914000124253479,91.07962791297743,2.280854308384172,1.4715132157923798,614.6468195628123,31.285112917682902,24.792071707761988,141.41835432482378,3.953317991830565,137.4650363329932,5.966302556880258,2.107771783619019,0.10117484800041578,-0.12883000217684398,0.3854082352309938,0.8872403489138757,0.8099048553957687,0.501198094608447
UMAFall_Subject_03_ADL_Sitting_GettingUpOnAChair_3_2017-04-14_23-48-14.csv,A,MA,126.4200591874253,-5.101434426229508,11.24366751498039,18.640625,-42.921875,61.5625,1.3824907121333752,-0.7388449538710361,138.98687357251112,-2.7430840163934427,11.78926942488427,18.6328125,-29.4140625,48.046875,-0.3620477595311864,-0.16928280192116787,102.23306294425588,-2.4600409836065573,10.111036689887733,16.0078125,-22.921875,38.9296875,-0.9350149914413466,-0.14787568917315436,100.16354644905223,17.398061219527364,10.008173981753727,48.653876587906645,2.730600072843422,45.92327651506322,0.6158009576546806,0.946787489767297,79.0163456305262,13.157538796744156,8.889113883314028,33.348143784139715,1.2347705062581467,32.11337327788157,-0.9056110586598942,0.4197201209425277,66.5903481854036,13.837718092460786,8.160290937546504,46.25851114676763,0.5248348884708885,45.73367625829674,3.2516581539577514,1.4020004881442512,0.36333445686104604,0.02086433205391602,0.662050193176919,0.942158241284669,0.8685579757998959,0.700718349689334
UMAFall_Subject_03_ADL_Walking_1_2017-04-14_23-44-16.csv,A,MA,3996.5787584315235,-4.786757172131147,63.21850012798092,132.8203125,-176.3515625,309.171875,0.2904615762013649,-0.10340798625015998,350.8938792744621,-1.6977459016393444,18.73216162845234,45.75,-48.0078125,93.7578125,0.13351250879756993,0.036998041997221974,4338.899537366856,-8.761910860655737,65.87032364704804,145.8515625,-109.1015625,254.953125,0.1620308523263474,0.940482547686597,1528.69397186367,84.51571264311077,39.09851623608842,206.91654089274624,22.895937150251815,184.02060374249442,0.5513287470138999,0.799491222931781,1250.0469200988468,58.84735026142228,35.35600260350209,146.3637872403281,4.7046885378610614,141.65909870246702,0.28220551879790623,0.9046691908678857,1556.070843786506,82.267574116931,39.44706381705115,204.07793972146285,11.035498473675759,193.0424412477871,0.5448678238820368,0.73190862048594,0.7227349313556207,-0.09525320457131455,0.11114421807550298,0.9967134780581567,0.6999542600071518,0.7098308310742907
UMAFall_Subject_03_ADL_Walking_2_2017-04-14_23-44-56.csv,A,MA,3374.5768399598164,-7.285860655737705,58.09110809719347,108.515625,-194.5234375,303.0390625,2.067042154850725,-0.9782583542527761,409.5211509162611,-0.5555840163934426,20.236628941507554,44.59375,-38.609375,83.203125,-0.5892477859721397,-0.042572482894651154,3573.7711659249057,-6.751024590163935,59.781026805541785,149.859375,-94.6015625,244.4609375,0.290672712640049,0.8807992498631578,1857.3509551299292,74.22475694973046,43.09699473431911,222.269247416659,16.116833415281597,206.1524140013774,1.773669771678044,1.2269651305512341,1179.8917288828354,52.946465490028324,34.34955209144415,150.23777134746484,2.0334273186313423,148.2043440288335,0.5161092423181319,0.9607045602059257,1900.6047802527867,71.15935240851321,43.59592618872532,219.65461419267479,5.520563697228414,214.13405049544636,1.7268365297598782,1.1921703040432552,0.6152401033822131,-0.036609053516672,0.3522341209925124,0.9968379184655031,0.7297737051478884,0.7195084787601678
UMAFall_Subject_03_ADL_Walking_3_2017-04-14_23-45-34.csv,A,MA,3491.897483583877,0.6150102459016393,59.09227939066048,133.0859375,-178.4453125,311.53125,1.3430348154142706,-0.4461012871863475,291.3595532359974,-1.0509733606557377,17.069257547884074,38.6328125,-45.4140625,84.046875,0.3401649774999602,-0.4216795230284186,2438.4567569253218,-0.9501793032786885,49.380732648729726,114.8515625,-62.109375,176.9609375,0.5310438426097295,1.1055500789292938,1968.1247446618095,64.70118781275487,44.36355198427882,191.56304371991556,6.780822459160559,184.782221260755,-0.2517109133415789,0.7758028128676393,928.7488273953962,42.113527185933094,30.47538067679215,115.9084895687178,3.217697415879288,112.69079215283851,0.6568419908676013,1.1343451466842243,1947.2003771954383,62.60301380371464,44.127093459635866,189.68615452699305,6.228870533652149,183.4572839933409,-0.2536034066602384,0.7509998193763601,0.8182897131547635,0.07456281242907269,0.13551109736108213,0.9984516851032343,0.713038025297905,0.7189162938826981
UMAFall_Subject_04_ADL_Aplausing_1_2016-12-03_17-50-30.csv,A,MA,1493.9548880488496,-5.870773565573771,38.65171261469341,96.453125,-110.46875,206.921875,1.3131063459227121,-0.1877898680018806,1705.0133001608929,2.352202868852459,41.291806695286326,157.046875,-120.2734375,277.3203125,4.632645002699503,0.3560565884972307,8825.118192912452,-12.483094262295081,93.94210021557136,223.3984375,-256.0,479.3984375,1.9558935728345537,-0.6704031723748486,6404.822105210901,75.6503249984874,80.03013248277739,301.46603268007374,3.011108178219026,298.4549245018547,1.34609211568465,1.5816142959934338,5964.261682300339,68.20835716174238,77.22863252900662,294.38211627627925,2.549856862557436,291.83225941372183,1.656162599490692,1.6893594165732768,5537.423314953362,69.95395406655312,74.41386507199691,268.7746819380109,2.0856009794091728,266.6890809586017,1.4389823670154671,1.5890969689483905,-0.39513531026086895,0.6085285743772699,-0.8747766008035364,0.9960906857745082,0.9920211176239162,0.9847573942409816
UMAFall_Subject_04_ADL_Aplausing_2_2016-12-03_17-51-07.csv,A,MA,8226.444529415612,27.491290983606557,90.69974933491058,253.9921875,-157.0,410.9921875,0.5587404431876739,0.7652986670567367,24533.229222598882,-13.515496926229508,156.63086931572232,249.546875,-256.0,505.546875,-1.3007156478927566,-0.4018129399877121,10599.590155396172,25.358094262295083,102.954311009283,253.9921875,-256.0,509.9921875,1.2214758195528663,0.0733460691065757,10417.57422880412,184.3451509009145,102.06651864741993,421.4859515436224,36.124935796872016,385.36101574675035,-0.6035942475541094,0.7005856018130492,8520.812105238285,164.32116863090906,92.30824505556524,360.6217288392855,24.645853420409537,335.97587541887594,-0.6776635787557366,0.6493008258965471,7635.230408812806,111.38290933871536,87.3798054976824,334.83489565550485,21.46148496525957,313.3734106902453,0.5630537298023888,1.2837655658341045,0.0031645658814074876,-0.0013201950412431345,-0.657329734173498,0.8697732737400212,0.9659525564984568,0.7614590579245756
UMAFall_Subject_04_ADL_Aplausing_3_2016-12-03_17-51-44.csv,A,MA,8618.655355985045,4.316726434426229,92.83671340576984,253.9921875,-242.171875,496.1640625,1.374608790391993,0.12592841659425627,23671.505350815398,6.51280737704918,153.8554690312158,253.9921875,-256.0,509.9921875,-0.670190689047764,-0.08259711936826737,11761.87318095223,32.443263319672134,108.45217001495281,253.9921875,-256.0,509.9921875,0.9021065550462994,0.11527103835836498,14284.679338752165,174.3358289395334,119.51853136125864,441.08963105254503,6.119028099527939,434.9706029530171,-1.1360078595446863,0.35491373293687944,11734.11462445671,156.2233445391577,108.32411838762737,360.6217288392855,4.8352874664090555,355.7864413728764,-0.9935991160705475,0.39666105330502327,7262.6653637722375,118.21174094750188,85.2212729532494,360.6217288392855,4.409801593910576,356.2119272453749,-0.23658883905377426,0.8473794252096636,0.2692932508527246,-0.04762652176169478,-0.5558000725777005,0.8806053936281714,0.9776853623077975,0.8402066623701754
UMAFall_Subject_04_ADL_Bending_1_2016-06-13_12-56-21.csv,A,MA,4.237517977021431,-2.7879098360655736,2.0585232515134315,2.5546875,-8.421875,10.9765625,0.4552290746661991,-0.26274793608735486,1.4632830843899423,0.4588883196721312,1.2096623844651624,2.546875,-2.4609375,5.0078125,-0.56590163493953,0.11739295087770912,2.4024074200072576,-1.422515368852459,1.5499701351985005,2.234375,-4.7109375,6.9453125,-0.6332785890391173,0.05971283871451385,2.8310330093785905,3.8977321719847753,1.6825673862816284,8.937544389094313,0.6637407308674826,8.27380365822683,0.40359499737342563,0.681388289709647,1.1676783571900544,2.210862027451926,1.0805916699614404,4.766636675404629,0.10626148834949566,4.660375187055133,-0.4222150569270706,0.29446254336029065,3.199200118081827,3.6304698284323655,1.7886307942339097,8.73359231734714,0.6600059925154089,8.073586324831732,0.0684755432199915,0.687311520322595,-0.01440943045302145,0.1409965379439578,0.003472705842355783,0.9763828362555562,0.5112640462110591,0.42898401087200944
UMAFall_Subject_04_ADL_Bending_2_2016-06-13_12-57-13.csv,A,MA,3.4825152621243167,-3.435450819672131,1.8661498498578073,0.296875,-7.265625,7.5625,-0.45369217221383007,-0.2102910334138464,4.037708553460126,0.22015881147540983,2.00940502474243,6.1875,-2.8828125,9.0703125,-0.16897246559473,0.4540025216346325,2.0741438068327356,-1.0283043032786885,1.4401888094387956,2.6796875,-4.546875,7.2265625,-0.4104388153692038,0.04424412928144238,2.9400116373278093,4.410608819522853,1.7146462134585692,9.873281594947295,1.3992447041841896,8.474036890763106,0.7167883052930648,0.7684976633110688,1.3071895986904083,2.414907335843185,1.143323925530472,6.685236182252651,0.6663105331318874,6.018925649120764,1.953396986021044,0.7881913062704585,3.124481573257584,3.905385743816131,1.767620313658333,7.69392833363588,0.34807295953039785,7.345855374105483,-0.4740839293255039,0.308336829585292,-0.17879234311583042,0.26786408905988635,-0.04216970928029601,0.9535105904525897,0.546811599480581,0.36432980157987366
UMAFall_Subject_04_ADL_Bending_3_2016-06-13_12-57-54.csv,A,MA,5.916610801154799,-2.5522540983606556,2.43240843633523,4.796875,-6.7421875,11.5390625,1.4059604427046022,0.9281876342499723,3.3520184959870223,0.48219774590163933,1.8308518498193735,4.3828125,-4.53125,8.9140625,0.5925652424674928,-0.5750348403715178,3.2776295146004104,-1.3783299180327868,1.8104224685416415,2.609375,-4.8984375,7.5078125,-0.7842105354281426,-0.04350670605585813,2.706670739839174,4.280723345546695,1.645196261799538,8.162795206664045,1.3778822773780421,6.784912929286003,-0.6388645079945077,0.27804193691405604,1.7182697993546305,2.6387822652549864,1.3108279060786854,5.902249389136527,0.3873298517575169,5.51491953737901,-0.3377070204338253,0.40620467623927525,2.5788511405473837,3.862736661730722,1.6058801762732435,7.9040147840848105,0.9798382559445717,6.924176528140238,-0.4011569039374665,0.38506025490576784,0.06738862311082976,0.08269139960814256,-0.08811941271966393,0.9522675204531532,0.6827640909819627,0.54766685309489
UMAFall_Subject_04_ADL_HandsUp_1_2016-12-03_17-48-37.csv,A,MA,2.8015209427296797,-3.3551485655737703,1.6737744599346949,0.5703125,-6.75,7.3203125,-0.3423447829977966,0.28638177116990265,2.8411360276852804,0.07159323770491803,1.6855669751407922,4.2109375,-4.2578125,8.46875,0.09281437538528081,0.02144302555376126,1.9518452295188695,-1.2809938524590163,1.3970845463030752,0.9453125,-4.515625,5.4609375,-0.6906487879679752,-0.2614388045592394,2.478227547023089,4.235031763368438,1.5742387198335228,8.153892439446482,0.6511614473145274,7.502730992131954,-0.021902393837848422,-0.12703682974198982,1.6747208169921788,2.170993380534543,1.2941100482540806,5.180512283503558,0.15169131124177812,5.02882097226178,-0.5465133912573714,0.35055681790638465,2.2869855289482173,3.9145772850778604,1.512278257778051,6.982404119295606,0.6258782891365541,6.356525830159052,-0.5257977338228246,-0.22848546311330306,0.05427346420654338,-0.061375261836899446,0.018612429246014514,0.9628427841494995,0.5741167141419592,0.42949387028029384
UMAFall_Subject_04_ADL_HandsUp_2_2016-12-03_17-49-13.csv,A,MA,2.6837287944522714,-3.520235655737705,1.6382090203793505,0.8359375,-6.609375,7.4453125,0.24509100256877359,0.4143874578264824,3.3094715556160357,-0.13729508196721313,1.8191953044178724,4.2890625,-3.0,7.2890625,-0.6584391215024241,0.30860014324328006,2.3542713603035343,-1.0423924180327868,1.5343635033144962,4.109375,-2.9765625,7.0859375,1.4843522562024605,1.1388401986887071,1.7757620068780824,4.467825838387898,1.3325772048470896,7.306111993457088,1.7640687278455167,5.5420432656115715,-0.2897839033719545,-0.2043258907092335,1.1127601628578139,2.3625851034673917,1.0548744772994623,5.154811589139922,0.4752158226795484,4.679595766460373,-0.4804635584636827,0.036683173910542294,1.8399015703090826,4.077292209775915,1.3564297144743926,6.9964416178869095,0.8697526812620355,6.126688936624874,-0.02680042750943956,-0.15034721006695764,0.3091873820639357,0.29039426820033226,0.24853843067921885,0.9492868500184927,0.4197802152195924,0.2087266895761694
UMAFall_Subject_04_ADL_HandsUp_3_2016-12-03_17-49-52.csv,A,MA,15.729578337122181,-2.9554303278688523,3.9660532443629877,8.1484375,-16.2734375,24.421875,3.4987367768440105,-0.9784986618133522,20.873464515560965,-0.21401127049180327,4.568748681593349,18.1328125,-7.6953125,25.828125,7.205795088044146,2.0874949101949882,3.2621132438951506,-0.8926741803278688,1.8061321224913616,3.046875,-4.9296875,7.9765625,-0.4111159195166243,0.2776271583693083,17.661381947276976,5.605088250043912,4.202544699021889,24.64655673292037,1.2785079270506108,23.36804880586976,12.630820446680419,3.1974817053886806,10.93179819164437,3.7188697451218,3.3063269940591735,18.510213146332386,0.8138885370744878,17.6963246092579,11.897155900298202,3.090331214357391,9.68487347685652,4.3226939436743645,3.1120529360627076,16.692928731319327,1.0920746096879095,15.600854121631418,6.892407127039524,2.3586089936481476,-0.4947950049541815,-0.146513713490867,-0.4448388937648178,0.9162857253389005,0.8858222783301696,0.6556688840848501
UMAFall_Subject_04_ADL_Hopping_1_2016-06-13_13-01-04.csv,A,MA,7965.351425187574,-4.85015368852459,89.24881750021999,167.8125,-250.0078125,417.8203125,0.7748185391744653,-0.9502580943761543,3061.66652041576,-1.4938524590163935,55.33232798659171,173.4609375,-80.3046875,253.765625,1.5242721597736368,1.273757516650931,3153.818345833867,-2.2054303278688523,56.15886702769089,142.53125,-149.46875,292.0,1.2959026592750131,-0.6596516990734786,4118.620168787348,99.63875385052826,64.17647675579697,290.5229245724826,23.873242378448644,266.64968219403397,0.5722912037494079,1.116466756307978,2059.2325535432874,63.99384772766734,45.37876765121864,219.38697132800883,8.989909979822517,210.3970613481863,1.4320716019926838,1.2872937231468058,4156.532746558395,82.92697599473568,64.47117764209364,289.7770430523712,7.74452064995996,282.03252240241125,1.083886686280005,1.2711216400870806,-0.30400078903812844,0.35866492760507684,-0.6019384768848675,0.9469974983132902,0.7039201971113919,0.526210471233264
UMAFall_Subject_04_ADL_Hopping_2_2016-06-13_13-01-42.csv,A,MA,9889.81268520668,-1.9503073770491803,99.44753735114148,161.359375,-243.3828125,404.7421875,-0.11125442855251144,-0.566040440694186,5185.8235612379385,-6.459400614754099,72.01266250624218,253.9921875,-103.6640625,357.65625,3.5836769616987283,1.7756235529332949,6401.319693243308,3.839779713114754,80.00824765762158,159.5546875,-219.1953125,378.75,0.6477692992715465,-0.8834346419445882,4857.04602225722,128.09263773227872,69.69251051768202,305.3057302577576,34.40024907221558,270.90548118554204,0.08150470627526873,0.8795205375358807,3825.9674491154315,87.69498947865296,61.85440525229736,299.1419517346199,19.583586129795663,279.55836560482425,2.709747205692577,1.653443293439014,3853.460691343404,110.69021202008386,62.07624901154551,305.28818112589335,24.712216908864757,280.57596421702857,0.6456588403753267,0.8549151718013507,-0.31443670569220844,0.1564442671255103,-0.5107538805821626,0.9340464626029717,0.8329083242630961,0.6502949594343762
UMAFall_Subject_04_ADL_Hopping_3_2016-06-13_13-02-19.csv,A,MA,13523.64851981408,-4.027920081967213,116.29122288381905,240.4140625,-256.0,496.4140625,-0.17964906254216562,-0.49899003865519675,5002.399825632898,-7.483734631147541,70.72764541275849,221.6875,-107.71875,329.40625,0.9745677097142744,1.024434710616005,5980.524660804625,0.19057377049180327,77.33385197185399,159.375,-199.4296875,358.8046875,1.0744223277293656,-0.8419198473532492,6375.305632710192,133.81442457653822,79.84551103669004,387.22114028913296,10.467843360927132,376.7532969282058,0.9654629719185159,0.933714524895752,3560.376667810362,85.77242744167746,59.668891960638604,290.52402910399064,8.066091284710412,282.45793781928023,1.5427046676957072,1.2341415411050536,5962.0446981038785,115.48327513017979,77.21427781248671,318.44121724093856,1.039326799092807,317.40189044184575,0.1948147512744134,0.8065021038693752,-0.5003187268849523,0.23244210008297236,-0.5136773595935601,0.9786973991839926,0.7676765817393737,0.676077588702621
UMAFall_Subject_04_ADL_Jogging_1_2016-06-13_13-07-16.csv,A,MA,9333.797791461211,-17.434170081967213,96.61158207720858,253.9921875,-203.46875,457.4609375,0.8591513716731782,0.7623995637313452,4425.454886648043,71.51050204918033,66.5240925278056,218.6328125,-68.6875,287.3203125,-0.7106541100370038,-0.256865241220871,13426.378123232316,38.97873975409836,115.87224915065866,216.2265625,-256.0,472.2265625,0.30487032034257444,-0.956546616254366,3568.7384146970926,173.68585019788495,59.73891876069647,327.2142828325934,58.43120266035894,268.78308017223446,0.14912217256019478,0.4855431695373477,3259.152323779109,144.86735473771225,57.088986011130984,258.6913901767171,17.941344590167287,240.75004558654982,-0.4652691871677721,-0.32731574929596885,4628.699859419593,140.20531795248382,68.03454901312709,308.8089397065373,13.166120944403339,295.6428187621339,0.09941897278791112,0.6118764111516698,-0.24760350801923012,-0.607605501263131,0.23871723561090533,0.8722739225231174,0.8164656722048695,0.6087862213652462
UMAFall_Subject_04_ADL_Jogging_2_2016-06-13_13-07-58.csv,A,MA,10945.867471363505,-24.87935450819672,104.62249983327442,241.4375,-199.5859375,441.0234375,-0.052608485305325914,0.35216211823468807,6428.895470224184,67.91841700819673,80.1803933030026,222.8203125,-96.0234375,318.84375,-0.5697553884867124,-0.440259407449171,15788.81595372268,32.27766393442623,125.65355527689091,248.4296875,-256.0,504.4296875,0.2592437565324448,-0.8218527559931056,5371.514608927139,183.33084277840058,73.29061746858966,321.6597813740681,30.54886402571655,291.1109173483515,-0.8015567955985681,0.07223718407769587,4499.00417631692,151.93089085165045,67.07461648281651,318.81061550257215,28.758416312256532,290.0521991903156,-0.5805477535607588,0.2582588438424277,6522.342713297917,146.77132122408082,80.76102224029805,311.3711941860513,18.51115122639763,292.8600429596537,-0.9130796627847504,0.19134358099944154,-0.15561571675564892,-0.4476032925309616,0.17556866423514586,0.9007975224317419,0.8610702823225507,0.6983886756854832
UMAFall_Subject_04_ADL_Jogging_3_2016-06-13_13-08-41.csv,A,MA,11864.31709101109,-5.925461065573771,108.92344601145838,253.9921875,-256.0,509.9921875,0.2807000841380938,0.543876654100578,6258.189882772477,62.99871926229508,79.1087219134052,221.3359375,-148.171875,369.5078125,0.34567504373795765,-0.7600281226506007,16017.876704214963,35.771516393442624,126.56175055764267,216.3046875,-256.0,472.3046875,0.14427068747443306,-0.9670305535106023,4453.6556430290175,185.69763451611473,66.73571489861345,361.06717519719626,75.74114636339621,285.3260288338,-0.24862988935609698,0.38741440110660896,4005.441818047874,152.37961262544368,63.28855993027393,273.5070000960899,7.174040556768288,266.3329595393216,-0.5315707695856635,-0.08070188587548592,5457.034643798605,152.87984192003194,73.87174455634987,360.6217288392855,30.86146452577682,329.7602643135087,-0.0031725546683532,0.6295547180725043,-0.22482248013671233,-0.4234588591386012,0.0031040515704754304,0.906991649955014,0.7668011529400023,0.5874546709769858
UMAFall_Subject_04_ADL_LyingDown_OnABed_1_2016-06-13_13-10-22.csv,A,MA,11.19204541816086,-4.028304303278689,3.3454514520705363,4.34375,-12.90625,17.25,0.34816272101292345,0.0006919020579127476,3.98560123964737,-0.13025102459016394,1.9963970646260152,4.703125,-4.6171875,9.3203125,0.27550442687161025,0.4852743154524534,4.138748419089395,-0.3867827868852459,2.034391412459607,4.3125,-4.8984375,9.2109375,-0.06926222807158444,0.09484508712821764,6.018765576452481,5.428944408230705,2.453317259641011,13.23589682808649,1.6385403422329887,11.597356485853501,0.7733717589204709,0.8558980829270717,2.016654335276702,2.4847807597963167,1.4200895518511154,6.199217519297294,0.39790098682021385,5.80131653247708,-0.4485852092928897,0.5123921265878483,6.392362144088415,5.016845274682601,2.5283121136616846,13.109039775213324,1.2042912367083387,11.904748538504986,0.7469235718683982,0.850364113022448,-0.027575727741508866,0.24228319918552527,-0.155278607955298,0.9748046089010696,0.30483782987143526,0.16030204136221807
UMAFall_Subject_04_ADL_LyingDown_OnABed_2_2016-06-13_13-11-01.csv,A,MA,19.059030301453635,-4.426101434426229,4.365664932338903,9.46875,-11.765625,21.234375,1.1083858545438563,0.8147306165435848,32.194935082607586,0.015496926229508197,5.674058078889181,14.578125,-12.953125,27.53125,0.4894431483081596,0.22937741564858932,40.07690392999701,-1.0765881147540983,6.330632190389599,10.1953125,-18.2734375,28.46875,0.35880004196545334,-0.5218669826777116,27.642898885750036,9.132007521388813,5.2576514610375265,22.9125934471976,2.388952131198164,20.523641315999438,-0.6652999465806375,0.6530754680005603,28.674403177550452,6.636415138893645,5.354848567191275,20.86455635555337,0.23812110397075267,20.626435251582617,-0.26723173165098224,0.9096483458723177,19.370559530317813,7.737111811861671,4.401199783049823,20.580955872575654,0.9421758394800834,19.63878003309557,-0.2086831254714041,0.5581037108435395,0.39809492279673847,-0.585539291272743,-0.8021638104460214,0.9544377467350131,0.929986068567622,0.8304478816502644
UMAFall_Subject_04_ADL_LyingDown_OnABed_3_2016-06-13_13-11-39.csv,A,MA,14.538125560322744,-4.663037909836065,3.8128893978612526,5.140625,-14.1484375,19.2890625,0.7855907760028642,-0.31982869758670146,6.003737152599896,0.5910604508196722,2.4502524671143373,5.125,-4.875,10.0,-0.42276936568621437,-0.195072301769686,14.808877146569758,-1.852202868852459,3.8482303915656813,4.5859375,-12.3359375,16.921875,1.5603956028773212,-1.1413532591104183,12.41667484092771,6.934120507465136,3.523730245198646,15.060346140740133,1.4356943482924038,13.624651792447729,-0.5188749317117152,0.6035189938461656,8.925545702987375,3.9334725806981434,2.987565179705269,12.869561389245654,0.6048005385300596,12.264760850715595,3.1050882801049644,1.8578196710060844,12.108318322411037,6.490813586684098,3.4797008955384423,14.448576142273069,0.9017263174392217,13.546849824833847,-0.4583389518534302,0.61294510731874,-0.08946940347565671,-0.20457870608706596,-0.30548054461465546,0.991056570260849,0.6590457962324943,0.6195168656721499
UMAFall_Subject_04_ADL_MakingACall_1_2016-12-03_17-42-53.csv,A,MA,8037.506617178162,-13.850537909836065,89.65214228995401,159.75,-256.0,415.75,-0.1908815585700876,-0.3415535194122395,2466.59369323397,2.1571465163934427,49.66481343198593,144.5625,-156.0234375,300.5859375,2.853280877876279,0.17285781551459029,8023.892302299458,4.648053278688525,89.57618155681486,253.9921875,-256.0,509.9921875,3.832322614751411,-0.02902262336087476,6169.061471763967,111.24037393488938,78.5433731880925,306.6583511994277,11.697900723961384,294.96045047546636,-0.23421277767803206,0.8090233405311008,5517.404215764212,70.12712406286202,74.27923138915892,298.08613580700387,6.021973111551562,292.0641626954523,2.4710415572348685,1.8429803206638136,5580.614656708088,102.57879862324197,74.70351167587832,265.09519406066664,8.59421163532831,256.50098242533835,-0.16826024847295828,0.8803833174205534,0.1987179532352618,-0.1383388929486269,-0.18232568032137478,0.9754922173147135,0.8445264925259574,0.7895445611780689
UMAFall_Subject_04_ADL_MakingACall_2_2016-12-03_17-43-29.csv,A,MA,6295.806102481695,-13.085809426229508,79.34611586260348,222.1796875,-207.4609375,429.640625,1.4572963906247258,0.5262568524928727,832.7963254167734,2.6401127049180326,28.85821071058934,89.65625,-39.3984375,129.0546875,2.5536627457796186,1.436116112712646,1072.1526024990392,2.063780737704918,32.74374142487445,77.6796875,-73.390625,151.0703125,0.842862140639348,-0.3224866541628875,2707.6379812709038,74.73642849593618,52.03496883126677,225.7012415008811,7.725977922779824,217.97526357810128,0.8140017657932268,1.1618346513388702,661.3484124145232,35.13464113709628,25.716695207870764,110.87346440814088,2.207124583203506,108.66633982493737,1.3089918821149968,1.3408282871818278,2656.5112517904663,69.3520598754519,51.541354772555856,222.2359411472358,6.299850026116693,215.9360911211191,1.015470091599318,1.2124320806471978,0.1311561815363122,-0.23316767729305934,0.4125490508353881,0.9878184480082063,0.3693954681865872,0.2709915690787146
UMAFall_Subject_04_ADL_MakingACall_3_2016-12-03_17-47-48.csv,A,MA,6270.320203237064,6.538422131147541,79.18535346411647,197.1328125,-197.4296875,394.5625,1.1565331979368505,-0.221208046942724,1668.4541063986187,-2.668673155737705,40.846714756496866,104.9375,-106.4609375,211.3984375,1.4668336323422686,-0.3999716152392634,6863.377463418929,-39.657786885245905,82.84550357997065,42.71875,-256.0,298.71875,2.2870498259399703,-1.877790067675733,6527.025663783774,98.80324460873558,80.79000967807698,277.4848384530028,9.651536698605629,267.83330175439716,-0.48708599235928896,0.9279735240197869,6214.613409279121,62.12159732835689,78.83281936655013,268.6624713251465,8.124372722180233,260.5380986029663,1.982002728281393,1.8382146063781228,6304.879530049294,91.28176884187955,79.40327153240787,265.2438728279202,5.281671811927191,259.962201015993,-0.34490633518942104,0.9637017025079712,-0.2776278658164369,-0.012409095188115307,0.1460439919080275,0.9939346331575061,0.8151100410677431,0.7843145399328925
UMAFall_Subject_04_ADL_OpeningDoor_1_2016-12-03_17-52-32.csv,A,MA,15.581430503970289,-3.802126024590164,3.947332074195214,6.4375,-10.3125,16.75,-0.29229586874945257,0.3972680187497638,17.517613745517412,-0.36859631147540983,4.18540484846059,12.40625,-10.46875,22.875,1.3878652586204252,0.2952511306118561,14.886534410487107,-1.2752305327868851,3.8583071949349894,6.9375,-9.359375,16.296875,-0.5384098868249287,-0.1048567557711961,11.001293615466572,7.252325402871221,3.3168198044914305,14.423224984215995,1.1997975496542115,13.223427434561783,-0.5350803256014096,0.2591038477086745,7.381518079088202,5.135610886648273,2.7168949333914627,14.009520427111566,1.1396881854947212,12.869832241616844,1.3670599065097164,1.1282012212537107,10.76647865179208,5.954904390218972,3.281231270695816,13.547303013711346,0.39528470752104744,13.152018306190298,-0.34742527658429223,0.2796106897216073,0.3540484227364522,0.028010117017870626,-0.4615988054477549,0.8240508112002629,0.831088089263446,0.4784865603433751
UMAFall_Subject_04_ADL_OpeningDoor_2_2016-12-03_17-54-07.csv,A,MA,10.74307597843024,-2.3601434426229506,3.27766318868035,12.4765625,-11.671875,24.1484375,7.000833231881321,1.1222826789305471,17.06116980047174,0.07159323770491803,4.130516892650572,13.7890625,-14.1328125,27.921875,3.470357875884507,0.4175415832232412,5.5476943052531595,-1.1648309426229508,2.3553543905860876,2.96875,-6.59375,9.5625,-0.5042435106117478,-0.2170564391406467,9.651146814030982,5.4994990191712025,3.10662949416743,17.448495986962065,1.5229967311090165,15.92549925585305,4.480513931104312,1.992390255538047,8.400023670037095,3.916358684012949,2.898279432704358,15.060175926123215,0.5255321893388168,14.534643736784398,5.135340661624447,2.094724602137706,5.428550407865669,4.196577044708416,2.3299249790209275,13.429560245179522,1.017966051895887,12.411594193283634,5.015511399186703,1.8831606481116063,-0.09901027364864236,-0.13659511832011959,-0.14160247505102735,0.757364375267538,0.8132215197730367,0.32436032111608865
UMAFall_Subject_04_ADL_OpeningDoor_3_2016-12-03_17-54-45.csv,A,MA,11.391416222410776,-3.150486680327869,3.375117216099431,6.46875,-10.8125,17.28125,0.4702743926924815,0.23146476452330325,11.693505625907187,0.7761270491803278,3.4195768197113496,8.625,-8.875,17.5,0.7075563085598615,-0.0767441790303061,7.6916899800952,-1.3158299180327868,2.7733896192376575,3.203125,-8.984375,12.1875,-0.026374986646926946,-0.5552980238937335,7.219522392548938,5.952331940879685,2.6869168934950216,11.799205585182683,1.451717228029016,10.347488357153667,-0.7686386547164701,0.38210281461869217,6.6770149479336505,3.8514453646998725,2.5839920564764998,10.181066435768468,0.4796900447815235,9.701376390986944,0.047157996044234984,0.953980785350876,6.479329618019967,4.90450119709734,2.545452733409121,11.797319941940204,0.5069102561721355,11.290409685768068,-0.1671251434114418,0.5784867140429832,0.05177697235380146,-0.1423278500879639,-0.4674504490564791,0.8473649889064536,0.7062282251137152,0.33332900155005163
UMAFall_Subject_04_ADL_Sitting_GettingUpOnAChair_1_2016-06-13_13-03-32.csv,A,MA,2.170631150209187,-3.441342213114754,1.4733061970307417,-0.4765625,-6.3046875,5.828125,-0.9658483102674031,0.09776387821240332,0.9344676200157955,0.09720799180327869,0.9666786539568335,2.7109375,-2.6640625,5.375,1.228140935303471,0.5586517565002281,1.579155893794826,-1.7414190573770492,1.2566446967201295,0.84375,-4.1328125,4.9765625,-0.5258461672348873,0.7082899716040502,1.6227930205566647,4.230378198518498,1.273888935722681,6.78068744066328,1.612443979162532,5.168243461500748,-0.7528846435606775,-0.030875041524057074,0.7964452505044743,2.175090234229297,0.8924378132421745,4.143461587342309,0.49410588440130926,3.649355702941,-0.36722101626979997,-0.30360660073769286,1.6909733353524445,4.111014379129435,1.300374305864448,6.779386624748031,1.4928622492756993,5.2865243754723314,-0.7233227330855017,0.010285057762165055,-0.09107310650116732,-0.05655372984600726,0.20333330416291284,0.9857656765790724,0.3543662800696245,0.3034122598376798
UMAFall_Subject_04_ADL_Sitting_GettingUpOnAChair_2_2016-06-13_13-04-16.csv,A,MA,6.376874946635929,-3.2854764344262297,2.5252475020551803,2.6796875,-12.5625,15.2421875,3.3329680496097334,-0.8412616147755952,4.702793175535776,0.15420081967213115,2.1685924410861013,6.859375,-6.1796875,13.0390625,1.7716581440229557,-0.1796168573308091,3.1247053302702352,-2.1376793032786887,1.7676836058158811,2.8671875,-6.765625,9.6328125,1.1275748773503134,0.20016316591286334,4.2792743770641355,5.014997370964636,2.0686407075817046,12.785399120248945,2.0283783788179783,10.757020741430967,3.1062495748846857,1.407500129077132,2.4973068756791035,3.136281577907619,1.5802869599155414,7.3299279831579005,0.41413619627183035,6.9157917868860705,0.569569718567847,0.8551769412690475,4.5155958336318465,4.5020301196483254,2.1249931373140587,12.631691547360402,1.4310529681518604,11.200638579208542,3.385899073215561,1.4783688559424053,-0.18119490945766656,0.1858242778180538,-0.06460297070885555,0.9061997547122825,0.5036345994088656,0.24398005761876126
UMAFall_Subject_04_ADL_Sitting_GettingUpOnAChair_3_2016-06-13_13-04-55.csv,A,MA,2.0597959424628582,-3.509861680327869,1.4351989208687617,0.375,-6.453125,6.828125,-0.20569756627885383,0.36285889881574324,3.0574605973040474,0.6903176229508197,1.7485595778537395,4.171875,-2.7890625,6.9609375,-0.8838272376274894,-0.3188917134744418,2.0410311339331453,-1.7850922131147542,1.4286466091840715,0.9453125,-4.671875,5.6171875,-0.39107691736916594,0.20552363294498713,1.7556526699329118,4.61479022943985,1.3250104414429766,7.248678152666009,0.6594046201877872,6.589273532478222,0.6336877196001018,-0.3319570350905236,1.387055393041873,2.7043826928553925,1.1777331586746944,5.457158474268568,0.5423923424284307,4.914766131840137,-0.15632841901102434,0.39364102638126947,1.8225005523316866,4.21267849868378,1.3500002045672759,7.077366129297325,0.5193990668310832,6.5579670624662425,0.10676682468168952,-0.265161774892018,0.13384876213088723,-0.012555889115111591,-0.44086100373964504,0.9623146873107229,0.5741109843115254,0.4065298625548556
UMAFall_Subject_04_ADL_Walking_1_2016-06-13_12-58-50.csv,A,MA,11040.248393841519,-2.0444415983606556,105.07258630985305,251.703125,-233.984375,485.6875,0.24846892068330906,0.507925819239443,4534.826462475719,-1.2644723360655739,67.34112014568602,129.1796875,-142.1953125,271.375,-0.6450499965291749,-0.4026142151074787,3994.6535906682248,-10.153560450819672,63.2032719933725,80.3984375,-214.609375,295.0078125,1.9148670803414447,-1.316345090577655,4126.604189874379,123.68844613483212,64.23865028060894,252.1894320616046,20.83916682651774,231.35026523508685,-0.6232565018376346,0.4763803994664766,2580.0559216560328,77.17892373223334,50.794250872082294,235.08017106641148,8.614764788621988,226.4654062777895,0.7667961130443173,1.0535355098655703,4346.645457055675,103.05490642666862,65.92909416225643,251.9938708574219,6.139740314770039,245.85413054265186,-0.4634680457009934,0.559773587597022,-0.41029738661786325,0.02986653613855193,-0.6338428606446653,0.9642093541858424,0.5089971371643832,0.3551725459579835
UMAFall_Subject_04_ADL_Walking_2_2016-06-13_12-59-29.csv,A,MA,12477.417313305798,-0.7644723360655737,111.70236037481838,253.9921875,-204.359375,458.3515625,-0.24165150024267978,0.5094618894986674,6320.662795570247,-2.3624487704918034,79.50259615616491,173.375,-142.6796875,316.0546875,-0.6325693844020268,-0.08149910448559913,8644.35136825478,5.316854508196721,92.97500399706783,155.9140625,-235.1875,391.1015625,0.03145179367332718,-0.6716245596818062,3940.5375144836757,152.15469607096247,62.77370081876387,300.37519476380623,26.351145582975253,274.02404918083096,-0.18599122600547524,0.260293317631731,3287.895530862318,107.32912263084226,57.340173795187596,247.10669606119794,6.113734258375256,240.9929618028227,-0.2806019727446891,0.3904893820226248,4211.059397582089,129.08267854918464,64.89267599338226,298.2401635081944,17.843389129998013,280.3967743781964,-0.1351566090315326,0.5235221223378567,-0.216138257984919,-0.36571183536041857,-0.46880415073809045,0.9360460105953203,0.6495343703627487,0.4684678121838803
UMAFall_Subject_04_ADL_Walking_3_2016-06-13_13-00-11.csv,A,MA,12686.690386762775,10.58017418032787,112.63520935641206,253.9921875,-196.890625,450.8828125,-0.22354055156323227,0.4091814747821721,5597.196693862332,9.695056352459016,74.81441501383495,198.5234375,-141.2734375,339.796875,-0.07990096429393967,-0.06368302635454558,7731.505249390316,-2.311219262295082,87.92897843936501,157.15625,-205.453125,362.609375,-0.08279590067051723,-0.4018174262434521,4466.12803245711,146.3122469500463,66.82909570282325,306.7244803734315,27.519596400295487,279.204883973136,-0.7059858773633643,0.22653951697629124,3961.7840409364653,96.50231978189142,62.942704429794446,277.9295672654343,7.94588094082596,269.9836863246083,-0.23497250143292403,0.6088965732146862,4820.377896840903,124.33582600893442,69.42894134898575,256.56205715647684,19.855655877167592,236.70640127930926,-1.0956179356410072,0.34810206364788,-0.2855985183236388,-0.2621839140352992,-0.6126102562988782,0.9347174591322956,0.5394700843759255,0.32209984520926677
UMAFall_Subject_04_Fall_backwardFall_1_2016-06-13_13-19-09.csv,F,MA,3.319283307184939,-2.9006147540983607,1.821890037072748,0.984375,-6.8125,7.796875,-0.4725973649697299,0.1456156216986605,1.7599313537931183,-0.36385758196721313,1.3266240438772088,2.90625,-2.53125,5.4375,-0.6545932419491245,-0.20761919864496692,1.380629809436902,-1.9814293032786885,1.1750020465671123,0.8515625,-4.7265625,5.578125,0.6207703943729479,0.5186852416582884,1.475612205393548,4.168278291441793,1.2147477949737338,7.075822266153065,1.686016419607917,5.389805846545149,-0.3611514355384777,0.11215466772159946,0.868283434856115,2.5086812666532383,0.9318172754655899,4.842546473463755,0.4704396630413937,4.372106810422361,0.518586756394539,0.4020210106930567,1.5834419312718646,3.9249215953151753,1.2583488909169287,7.056434930315821,1.4641925635930713,5.59224236672275,-0.24821140553305332,0.13640679569754638,-0.1928052448683936,-0.3966562992219328,0.08506560869241256,0.9646896141032283,0.21370342582934151,0.08918919505997489
UMAFall_Subject_04_Fall_backwardFall_2_2016-06-13_13-19-53.csv,F,MA,6.88767273282744,-3.201075819672131,2.6244376031499472,2.8984375,-9.9375,12.8359375,0.2971278480615216,0.2936156133104779,2.196448754482582,0.1095030737704918,1.4820420893087287,4.8515625,-2.9765625,7.828125,1.0495225718427816,0.31840528085396397,4.172607755400445,-1.6670081967213115,2.042696197529247,4.359375,-6.734375,11.09375,0.4062757837242388,0.45390830292357215,3.2144801887180936,4.7870048751501395,1.7928971495091663,10.361157110099057,0.6418623720763665,9.719294738022692,1.1068080766577166,0.6957488341917558,1.9409305266000039,2.6732828142847325,1.3931728272543948,6.821368403372688,0.5032244660996223,6.3181439372730654,-0.11211392708094925,0.4441706910609642,3.098645962009468,4.566937557998092,1.760297123217972,9.980893001012296,0.46225975601521924,9.518633244997076,0.7048692522963824,0.5434213742937024,-0.4714598369785388,-0.5446176390765434,0.24631889140715243,0.983572251116388,0.4703215476368505,0.40417954803065714
