File,Action_Type,PersonNo,var_Accelerometer_X,mean_Accelerometer_X,std_Accelerometer_X,max_Accelerometer_X,min_Accelerometer_X,range_Accelerometer_X,kurtosis_Accelerometer_X,skewness_Accelerometer_X,var_Accelerometer_Y,mean_Accelerometer_Y,std_Accelerometer_Y,max_Accelerometer_Y,min_Accelerometer_Y,range_Accelerometer_Y,kurtosis_Accelerometer_Y,skewness_Accelerometer_Y,var_Accelerometer_Z,mean_Accelerometer_Z,std_Accelerometer_Z,max_Accelerometer_Z,min_Accelerometer_Z,range_Accelerometer_Z,kurtosis_Accelerometer_Z,skewness_Accelerometer_Z,var_Accelerometer_N_XYZ,mean_Accelerometer_N_XYZ,std_Accelerometer_N_XYZ,max_Accelerometer_N_XYZ,min_Accelerometer_N_XYZ,range_Accelerometer_N_XYZ,kurtosis_Accelerometer_N_XYZ,skewness_Accelerometer_N_XYZ,var_Accelerometer_N_HOR,mean_Accelerometer_N_HOR,std_Accelerometer_N_HOR,max_Accelerometer_N_HOR,min_Accelerometer_N_HOR,range_Accelerometer_N_HOR,kurtosis_Accelerometer_N_HOR,skewness_Accelerometer_N_HOR,var_Accelerometer_N_VER,mean_Accelerometer_N_VER,std_Accelerometer_N_VER,max_Accelerometer_N_VER,min_Accelerometer_N_VER,range_Accelerometer_N_VER,kurtosis_Accelerometer_N_VER,skewness_Accelerometer_N_VER,var_Gyroscope_X,mean_Gyroscope_X,std_Gyroscope_X,max_Gyroscope_X,min_Gyroscope_X,range_Gyroscope_X,kurtosis_Gyroscope_X,skewness_Gyroscope_X,var_Gyroscope_Y,mean_Gyroscope_Y,std_Gyroscope_Y,max_Gyroscope_Y,min_Gyroscope_Y,range_Gyroscope_Y,kurtosis_Gyroscope_Y,skewness_Gyroscope_Y,var_Gyroscope_Z,mean_Gyroscope_Z,std_Gyroscope_Z,max_Gyroscope_Z,min_Gyroscope_Z,range_Gyroscope_Z,kurtosis_Gyroscope_Z,skewness_Gyroscope_Z,var_Gyroscope_N_XYZ,mean_Gyroscope_N_XYZ,std_Gyroscope_N_XYZ,max_Gyroscope_N_XYZ,min_Gyroscope_N_XYZ,range_Gyroscope_N_XYZ,kurtosis_Gyroscope_N_XYZ,skewness_Gyroscope_N_XYZ,var_Gyroscope_N_HOR,mean_Gyroscope_N_HOR,std_Gyroscope_N_HOR,max_Gyroscope_N_HOR,min_Gyroscope_N_HOR,range_Gyroscope_N_HOR,kurtosis_Gyroscope_N_HOR,skewness_Gyroscope_N_HOR,var_Gyroscope_N_VER,mean_Gyroscope_N_VER,std_Gyroscope_N_VER,max_Gyroscope_N_VER,min_Gyroscope_N_VER,range_Gyroscope_N_VER,kurtosis_Gyroscope_N_VER,skewness_Gyroscope_N_VER,Accelerometer_corr_XY,Accelerometer_corr_XZ,Accelerometer_corr_YZ,Accelerometer_corr_NV,Accelerometer_corr_NH,Accelerometer_corr_HV,Gyroscope_corr_XY,Gyroscope_corr_XZ,Gyroscope_corr_YZ,Gyroscope_corr_NV,Gyroscope_corr_NH,Gyroscope_corr_HV
UMAFall_Subject_01_ADL_Aplausing_1_2017-04-14_23-38-23.csv,A,MA,0.0008761885061941511,-0.8784699987192623,0.029600481519633275,-0.79443359375,-0.906005859375,0.111572265625,2.761511972272303,2.0441283079940953,0.0006831751169402745,0.44065381659836067,0.026137618807769665,0.467041015625,0.364013671875,0.10302734375,1.9365519750090971,-1.584275712436006,0.001694287595853128,0.21778944672131148,0.04116172488918714,0.279052734375,0.173583984375,0.10546875,-1.937890523233422,0.20413180757571925,0.0007877743627620566,1.0078407713925672,0.028067318410600905,1.041023096913045,0.9302824024358735,0.1107406944771715,1.082731006338764,-1.3634075532716823,0.0009350881343745391,0.4929774419579494,0.030579210820008734,0.5391130285492781,0.40828269657502114,0.13083033197425697,0.8844608630203705,-0.8699346758727594,0.0008305109713699545,0.9060095048426022,0.02881858725492897,0.9470064103494659,0.8217551488480027,0.12525126150146315,2.065904364821943,-1.6578646413929385,9.130801541688012,-3.3473360655737703,3.021721618827256,4.65625,-10.484375,15.140625,0.52864172568498,-0.12597480821990478,4.074160983393101,0.8943391393442623,2.0184550981860117,4.640625,-2.7578125,7.3984375,-0.7546741376178416,-0.10214538980162056,4.105307457095287,-1.403688524590164,2.026155832381924,2.5078125,-6.921875,9.4296875,0.017844442428371465,-0.09079057172349286,4.172035926446836,5.186298861007733,2.042556223570562,11.817652955926517,1.3030725409105204,10.514580415015997,1.5465072332748449,0.8774809720115977,2.1092235176659577,2.9565041317748952,1.4523166037975184,7.378264141265292,0.4616652094591924,6.916598931806099,0.3358205007712449,0.3398251182732991,5.549565469014903,4.553628754016001,2.355751572007308,11.817588396445888,0.204472692629725,11.613115703816163,1.057512152147475,0.7444941767771401,0.02043344635948342,0.14976483621120656,0.06162232524028147,0.9204415494859628,0.4305013642309286,0.12792717232486495,0.19783813280600399,-0.15352830006245832,0.16498031687642425,0.9543770687378297,0.12712436280152586,-0.019580838682513344
UMAFall_Subject_01_ADL_Aplausing_2_2017-04-14_23-38-59.csv,A,MA,0.0008023484157082813,-0.8733310386782787,0.028325755342237236,-0.85009765625,-0.962890625,0.11279296875,3.7084864800550017,-2.210654295669302,0.0007505230239180269,0.3843934106045082,0.027395675277642396,0.44677734375,0.297607421875,0.149169921875,2.129426832859659,-1.408398406000708,0.0012952979796571156,0.1274894339139344,0.03599024839671318,0.15625,0.040283203125,0.115966796875,0.5731560031470697,-1.3410478336587512,0.0005774666503473265,0.9638217839041211,0.024030535789851346,1.0384765636479247,0.9217871931252842,0.1166893705226405,3.5460350644718703,1.7066045051758802,0.0008187675043191838,0.4064711401120406,0.02861411372590778,0.44870097963155203,0.32482494995262423,0.1238760296789278,1.090827420427516,-1.3216912423724627,0.0006978101875075561,0.8833671642934658,0.026416097128598617,0.9640789012039326,0.8594840587426963,0.10459484246123629,3.394928475190561,2.1158169810191874,24.104925170231386,-2.1312756147540983,4.909676686934832,14.2890625,-20.3359375,34.625,5.277985291989095,0.4146365247489715,4.824088741781934,-0.3680840163934426,2.1963808280400587,4.546875,-8.9921875,13.5390625,3.1088071587319552,-0.9511684969767177,4.705768422611424,-1.655609631147541,2.1692783183841176,8.625,-6.703125,15.328125,7.3534275861159415,1.5352832468230873,12.05012872555171,5.352538805885924,3.471329532837773,20.465013375537712,1.538804705566954,18.92620866997076,7.120889544156851,2.380213648582266,3.9587440656980992,2.8907287091040996,1.989659283821755,9.750112679637349,0.5522061577210091,9.19790652191634,2.670953949544902,1.4790377582926901,12.187417981657672,4.861495849328849,3.491048264011495,20.444239260615998,0.9046996437008804,19.539539616915118,7.74018058764273,2.509424161087518,0.266967482615956,0.523327023013373,0.1159035894382971,0.9096704265038302,0.045986111773218354,-0.35215863409664466,-0.07069179232122794,0.07684246242629092,0.29320187852141016,0.9592744910861751,0.48699584611835933,0.31220915493149026
UMAFall_Subject_01_ADL_Aplausing_3_2017-04-14_23-39-35.csv,A,MA,0.0007128005796442917,-0.8802230084528688,0.026698325408989452,-0.802734375,-0.90576171875,0.10302734375,0.09986588472974889,1.043383411288604,0.0009695365129272794,0.3811275294569672,0.031137381279216135,0.453125,0.349609375,0.103515625,0.6664126311387153,1.5193440852289946,0.0002949975227397647,0.1775422643442623,0.017175491921332695,0.250732421875,0.15966796875,0.091064453125,5.096275330122939,2.0158161837459323,0.0006857523100733306,0.9761364672898472,0.026186872857852473,1.0259980936367328,0.8949545312765158,0.13104356236021697,1.2262997325986271,-0.8796418304348369,0.0008775756329948268,0.4209038656994728,0.02962390306821211,0.48918136029809234,0.39325932098711075,0.09592203931098159,0.16268695794563826,1.2900153478174066,0.000685252188068995,0.8981264156646784,0.02617732201866713,0.939825004206771,0.8185551302268548,0.12126987397991618,0.10653656897268116,-0.9844944760824964,6.812530851103569,-2.9404456967213113,2.610082537220532,4.7421875,-8.5625,13.3046875,0.8351578363673196,0.836773134022102,7.309427296789616,0.31954405737704916,2.7035952538776242,8.6484375,-8.59375,17.2421875,2.3439306335535717,-0.12704976880808555,2.0341908272498292,-1.2567879098360655,1.4262506186676411,2.1953125,-4.8671875,7.0625,0.09984596374352428,-0.12258894914744932,4.054231935482288,4.715015387814265,2.013512338050673,9.901717343352932,1.1558804308026414,8.74583691255029,0.06952890152820634,0.3912178152275067,3.32008659719527,2.7579719656454844,1.822110478866545,8.922716411724767,0.2717582364207201,8.650958175304048,2.481720744942617,1.4099986063430001,3.06034684612453,3.9896432138850244,1.7493847050104587,8.851203931395787,1.0097184013377194,7.841485530058067,-0.18049102461675082,0.139634810037496,0.09178131583716767,0.07279511856569085,0.01970795494915004,0.8728028716419731,0.4084547181024146,-0.06889256477433636,-0.1446737589086068,0.26154175794266543,0.3088666063436645,0.804488030837304,0.7401862121317682,0.28066778113421764
UMAFall_Subject_01_ADL_HandsUp_1_2017-04-14_23-32-44.csv,A,MA,0.00014260193037856468,-0.8309906506147541,0.011941605016854505,-0.7822265625,-0.842041015625,0.059814453125,11.160575381357557,3.262973798365677,0.0007205176874588096,0.5019411180840164,0.026842460532872345,0.53076171875,0.46875,0.06201171875,-1.9231006943196045,-0.17232991800422423,0.00025313727842654035,0.23550365010245902,0.015910288445736626,0.28125,0.21923828125,0.06201171875,4.380061447354364,2.3195969960417786,0.00033219926353428346,0.9993615566315628,0.01822633434166847,1.0283244858355485,0.9414661435903988,0.08685834224514966,1.1114099140179423,-0.8916464193802387,0.0006195163117263313,0.5547568731773095,0.024890084606652735,0.6002428517009315,0.5174862186236984,0.08275663307723313,-1.5472094476982408,-0.11961125558269647,0.00016943350626294406,0.8638460663762416,0.013016662639207642,0.8852991848963302,0.8158712504975636,0.0694279343987666,7.455832488742841,-2.2995336782223257,2.912591886259819,-2.4345543032786887,1.706631737153572,0.6953125,-6.46875,7.1640625,-0.5604857395472242,-0.1927049467776929,1.3111776383196723,0.6924948770491803,1.1450666523480946,2.7734375,-2.15625,4.9296875,-0.7180473400080327,0.21807723017671066,1.8693768610719774,-1.1780225409836065,1.367251571976415,0.890625,-4.0546875,4.9453125,-1.2263758859031315,-0.07337626908810613,1.8124901967074722,3.46479760083321,1.3462875609272604,6.481592964949376,0.4902616090542885,5.991331355895088,-0.6412030171184981,0.05563375285695922,1.1349451288736565,1.9696093654525173,1.0653380350262804,4.603425715737411,0.2281731541642224,4.3752525615731885,-0.5365618793497022,0.09041502626874416,2.263934075712512,3.1291447996834134,1.5046375230308835,6.469811393901391,0.32211762700137975,6.1476937669000105,-0.8129372439300635,0.1846491486116375,-0.1186457563403195,-0.15287980723186437,-0.06225605920887203,0.6783565157576592,0.8440777229054175,0.22339554420850313,0.3126711952659737,0.07215084830544863,0.05136357797406437,0.9528019342437661,0.31376870587104844,0.15391569014560585
UMAFall_Subject_01_ADL_HandsUp_2_2017-04-14_23-33-21.csv,A,MA,0.004991271359021549,-0.8461233670594263,0.07064893034591216,-0.71923828125,-1.00048828125,0.28125,-0.723988428184382,-0.18483519891111794,0.009100248351123164,0.48827324538934425,0.09539522184639629,0.688232421875,0.28515625,0.403076171875,-0.5864144037745453,-0.197144047445429,0.0077833115403118025,0.12110175461065574,0.0882230782749718,0.279052734375,-0.0830078125,0.362060546875,-0.5085118057783933,-0.1239860486245364,0.003484340647027252,0.9935241097063103,0.0590283037790114,1.159961208813005,0.8800580086337112,0.2799032001792937,0.885740052643059,0.8373387277338272,0.008348652967698855,0.5113427300251876,0.09137096348238238,0.6980923578593476,0.34558594867632547,0.3525064091830222,-0.8337508829422138,-0.04009325790934693,0.005359640947636324,0.8590016139565859,0.07320956868904722,1.0265806431669402,0.7258706439166566,0.30070999925028363,-0.5696922259857256,0.29289158462840087,2045.8208870309295,-10.591956967213115,45.23075156385232,105.390625,-120.6484375,226.0390625,0.27576619235405664,-0.07477527438010287,159.128508520908,-2.42827868852459,12.614614878025726,21.5,-28.8671875,50.3671875,-0.5505499234669617,-0.12207629623880549,107.40385361968494,1.4900102459016393,10.363583049297427,36.765625,-18.921875,55.6875,1.672845762980888,0.9905460464823127,771.0186874828181,40.45210751377757,27.767223258417793,123.49982257783941,3.691652190881137,119.80817038695827,1.2861297968972893,1.2608082100615168,67.74049533996082,14.270586941690986,8.230461429346523,40.52538869531358,1.9340001151273234,38.591388580186255,0.30085906499972825,0.7723207333952263,781.5372363635973,38.25716281713864,27.955987486826455,120.67104903495002,2.1347575837565844,118.53629145119343,1.2322675779523289,1.197834823417558,0.45026670495806026,-0.22464531830013962,-0.09538244158744223,0.7052806144259608,0.39499949456175143,-0.3525612280674429,0.6884509707665083,0.4544849215436248,0.39641995789964396,0.995779733862524,0.60826863578262,0.5675893343570526
UMAFall_Subject_01_ADL_HandsUp_3_2017-04-14_23-33-59.csv,A,MA,0.0001043825853066366,-0.8933425653176229,0.010216779595676741,-0.84423828125,-0.905029296875,0.060791015625,14.279960599293128,3.4101388141064843,0.001388487985225323,0.41097272028688525,0.03726242054973513,0.45068359375,0.359130859375,0.091552734375,-1.906567700715929,-0.3112558416306265,0.0013283547156495471,0.2256339651639344,0.03644660087922531,0.26416015625,0.17529296875,0.0888671875,-1.886808911259144,-0.3662675692328063,0.00036141457371724375,1.0100939005907124,0.019010906704238065,1.0414518548090268,0.9725847026447166,0.06886715216431016,-1.2765783707501563,-0.041683876930797475,0.001369577466744245,0.47024934021688847,0.037007802781903236,0.519265529971524,0.407154104249532,0.11211142572199195,-1.269196824732494,-0.2272214579828008,0.00017844380550791368,0.922065809229943,0.013358286024333874,0.9404308600334234,0.867517906685741,0.07291295334768233,4.274339060320919,-1.6083064860719238,3.032905820419228,-3.0541752049180326,1.741523993638683,0.90625,-6.3046875,7.2109375,-0.5386217305863394,0.31310327029924045,1.7388422064442453,0.4947489754098361,1.318651662283958,2.859375,-2.2109375,5.0703125,-0.7157226914465884,0.25806460576403556,1.784526820782104,-1.2852202868852458,1.3358618269799103,0.9453125,-3.0,3.9453125,-1.5523901747472295,0.3195739776538566,2.030583179163886,3.959299675272365,1.4249853259468626,7.313443114929691,1.1838193370004775,6.129623777929213,-0.5436473798035943,0.09940856546538679,0.9333904871390707,2.1081004743574634,0.9661213625311629,3.965011157180078,0.21021287573552672,3.7547982814445513,-0.7728170428140011,-0.2193815813892277,2.084910098818197,3.6969588121895756,1.4439217772504842,6.958731938745198,1.041643879959101,5.9170880587860974,-0.6592657439097285,0.058175636426856754,0.053025355220470145,-0.0274824315550121,0.019529612298646297,0.6156065126965934,0.8813746432253112,0.2850427235163803,-0.018521384104598696,0.07935579054780051,-0.03394535314720104,0.9699018373364668,0.4955937736777537,0.37757201428975484
UMAFall_Subject_01_ADL_MakingACall_1_2017-04-14_23-30-27.csv,A,MA,0.1771469417491246,0.468842053022541,0.4208882770393167,0.90625,-0.223876953125,1.130126953125,-1.5027884485644802,-0.45508513105925663,0.33712987326533417,0.3616242955942623,0.5806288601726013,1.142822265625,-0.27880859375,1.421630859375,-1.931902900263433,0.03674908483739405,0.018993438593025415,0.41400246542008196,0.13781668474109154,0.5947265625,0.08251953125,0.51220703125,-0.1840175647056541,-0.8793296230250104,0.008880907658914677,1.01871283613883,0.09423856778896142,1.2789069826453736,0.7954915697596967,0.4834154128856769,0.6280676405322918,0.05028841917131417,0.05969968990368701,0.7705416217531822,0.24433519988672733,1.197690729589258,0.425900014010033,0.771790715579225,-1.6637269931855998,0.21424335223772162,0.10536768456069633,0.693177849370367,0.3246038887023634,1.0672182059164186,0.12445545795406839,0.9427627479623502,-1.428495614299925,-0.4476826560706973,1116.9177737043203,-1.0446977459016393,33.42031977262217,76.625,-87.46875,164.09375,0.7466053647408026,0.34724055192054554,447.1035598171212,-2.216188524590164,21.14482347566707,52.9765625,-46.4140625,99.390625,0.260505786033006,0.13498855283451808,3147.8907471370176,39.26063012295082,56.10606693698122,194.171875,-8.5546875,202.7265625,0.8721097724295905,1.3865178071524231,3145.9715160198925,55.56680097368557,56.08896073221443,195.4788900622288,0.4591464142160973,195.0197436480127,0.18008642506847483,0.9896209554193497,2943.8261692609913,46.763252874641424,54.257037969843054,195.17134602467144,0.29851520585223124,194.8728308188192,0.694904921664258,1.2663691021568098,3066.221403041204,52.16729454061533,55.37347201540828,194.4809995652391,0.321168824860851,194.15983074037825,0.499402166998022,1.1358654694333337,-0.9062042699083553,0.7371783335592795,-0.6487694918652026,0.055441425548073686,0.4857013430210512,-0.8068257596418847,0.8046761853800157,-0.28791537644404674,-0.24144342805238486,0.9957931739758943,0.9738630695806216,0.9762260399048367
UMAFall_Subject_01_ADL_MakingACall_2_2017-04-14_23-31-05.csv,A,MA,0.024644655738371973,-0.3167504482581967,0.1569861641622343,0.017578125,-0.649658203125,0.667236328125,-0.5165524650593478,-0.2963317808852007,0.03822279080667131,0.8421490778688525,0.19550649811878712,1.479736328125,0.304931640625,1.1748046875,2.0260858885171853,0.5656474631532757,0.0323854809576045,0.3150894915471312,0.1799596648074354,0.693115234375,-0.086181640625,0.779296875,-0.4353437944400924,-0.3619234187632296,0.02676816847506622,0.9880229559936717,0.163609805559038,1.4967103091052787,0.48343357767635814,1.0132767314289206,1.941672962768223,0.2854341061397014,0.032258297835110875,0.9199009418794797,0.17960595155815653,1.4904304465400804,0.33692909981161573,1.1535013467284647,2.5757186024785543,0.24656604432973264,0.034679493340925155,0.47074034617910376,0.1862243092104926,0.8133206990959605,0.05721074950174159,0.756109949594219,-0.810532545047991,-0.34409194209017807,4005.655410016169,-7.681864754098361,63.29024735309674,136.078125,-181.3984375,317.4765625,0.2792730475463312,-0.004838818324211251,2475.7290375256143,4.956582991803279,49.75669841866132,121.875,-130.4609375,252.3359375,0.5450153539610088,-0.39051478325508937,688.8147559327505,5.587090163934426,26.245280641150526,62.828125,-50.859375,113.6875,-0.5769509629540202,0.19312744407143306,1594.6288518734,74.82621129328119,39.93280420748585,187.828999444246,10.212324169424228,177.61667527482177,0.3843647376692956,0.5920773735059593,958.5104984046151,47.1768174664372,30.959820710149714,135.5996342296787,8.071828723734944,127.52780550594377,0.7523478244094677,0.992646649128065,1419.2104814968743,57.548184379178366,37.67241008346658,182.17012825225052,5.353341401419888,176.81678685083062,1.0755835490208545,1.0460584757661964,0.30359840798938004,-0.3549329347250092,-0.2315915717531141,0.1621793368008775,0.9324682957780335,-0.09839358381709451,0.2224007304279487,0.3494960670157605,0.4940053561157737,0.8444624514748102,0.6301025391492302,0.17338497590258514
UMAFall_Subject_01_ADL_MakingACall_3_2017-04-14_23-31-42.csv,A,MA,0.0018984215832798862,-0.6222984439036885,0.04357087999203007,-0.5322265625,-0.715576171875,0.183349609375,-0.01893438591902452,-0.15613278871165615,0.0023826064959249858,0.6195768762807377,0.04881195033928665,0.751220703125,0.49365234375,0.257568359375,0.7706639944885878,-0.2838789882140316,0.0026251789650630426,0.45504210425204916,0.05123650032021159,0.5791015625,0.356689453125,0.222412109375,0.17240642387210148,0.3789664822817359,0.0027322956502586785,0.9911103178586831,0.052271365490664946,1.1390714647649356,0.8651038904589619,0.27396757430597374,1.3098084556876763,0.21369209182892138,0.0022331593230778884,0.77049851572047,0.04725631516610122,0.9137843108095428,0.6496410919539362,0.26414321885560665,1.2570282339461425,0.2586141507360006,0.0022672347188729147,0.772358754823685,0.047615488224661884,0.9077026629028226,0.684482193307702,0.22322046959512065,0.13875672552025575,0.41511065920185003,289.2869374426336,-3.6251280737704916,17.008437242810803,82.5234375,-26.4921875,109.015625,16.347975827623735,3.7157673073930337,44.02165800834614,0.5726178278688525,6.634881913670064,14.4296875,-19.328125,33.7578125,0.10967418628117853,-0.05725793050048764,20.45618929836919,-0.7861168032786885,4.522851898787886,8.578125,-14.765625,23.34375,0.9977224512045799,-0.4559443771862828,184.18347162793887,13.44948757206976,13.571421135162629,82.82504400867568,1.227557319499277,81.59748668917639,17.008396797340225,3.872516302670617,16.71535309479035,6.9228154177851025,4.088441401657892,19.996050635453617,0.6410535913878418,19.354997044065776,1.8465537411709017,1.1745440594328485,189.92199933342073,11.472418219801991,13.781219080089421,82.7889386440991,0.03314563036811941,82.75579301373098,16.939804454638015,3.847043353100527,-0.3418537863706144,-0.044492350717246845,-0.08589167447981454,0.8272049958581594,0.8636399739069917,0.598949094100703,-0.2743737672564696,-0.1116582519353918,-0.18582736273684933,0.9884623018430203,0.5477660106902713,0.45547817914048916
UMAFall_Subject_01_ADL_OpeningDoor_1_2017-04-14_23-35-12.csv,A,MA,0.0019701946302841267,-0.7722288037909836,0.04438687452709558,-0.678955078125,-0.8369140625,0.157958984375,-1.3284186215822793,0.020728372081233754,0.0018101725096259613,0.559386206454918,0.042546122145572345,0.638916015625,0.469482421875,0.16943359375,-0.16485615897742623,-0.1981266832708805,0.00364703242896033,0.20787173411885246,0.06039066508128827,0.39794921875,0.11669921875,0.28125,1.699090521463253,1.4249199611840981,0.0012962082572171773,0.9790258378616633,0.03600289234515996,1.0599045749213218,0.9027150038551881,0.15718957106613374,-0.6254005557097084,-0.09061370317011393,0.0018941876920634145,0.5996900807461554,0.04352226662368832,0.7002411086509781,0.5170191787689358,0.18322192988204233,-0.039486258139334485,0.2210713570971719,0.001900829507287329,0.8019996610048893,0.04359850349825472,0.8755922356846383,0.7119154858149781,0.1636767498696602,-1.2743468474109605,-0.24677625779292442,66.1153597472144,-0.8164702868852459,8.131135206551075,14.0859375,-25.484375,39.5703125,0.4340361506794541,-0.47563437712720025,50.69971423539958,4.596183401639344,7.120373180908398,22.3984375,-9.375,31.7734375,-0.38608901512659033,0.12721001389307435,4.434481861552254,-1.3715420081967213,2.10582094717292,2.90625,-6.4296875,9.3359375,0.30509678783641503,-0.347682522286462,33.824795212838445,10.472068606785038,5.8159088036899655,26.91190688936544,1.6846583423557282,25.22724854700971,-0.1154016540604017,0.6418098399182137,23.996929313865106,7.323445167979072,4.8986660749499045,22.520727486116122,0.6674088479429232,21.8533186381732,0.4700363664697367,0.845882430660765,23.172104900853366,7.01062077916083,4.813741258195476,25.549861255127198,0.8387074434993707,24.711153811627828,2.6553039225126076,1.4400292000875434,0.25983201934575206,0.1873228217399727,-0.14263693930377544,0.7692676118400634,0.4066794907484764,-0.15249552299424338,0.6544023703563494,0.342271886011916,0.29248286321074746,0.7571562295321936,0.8069493724961846,0.25439069918027335
UMAFall_Subject_01_ADL_OpeningDoor_1_2017-04-14_23-36-23.csv,A,MA,0.004528349312276788,-0.6818487448770492,0.06729301087242856,-0.53173828125,-0.779052734375,0.247314453125,-0.4221049777875945,0.4860320715104561,0.0025420639032874607,0.548768090420082,0.050418884391539846,0.647705078125,0.47265625,0.175048828125,-0.8614890212631314,0.26457646222902553,0.0031526056795172347,0.46929431352459017,0.05614806924122356,0.574951171875,0.352783203125,0.22216796875,-0.25059691136171525,-0.498379114206306,0.00120541361680669,0.9975826062756785,0.034719067049773816,1.0752891617370568,0.9317213939147521,0.14356776782230474,-0.6715038565345042,0.20766024221895263,0.0038115554482124206,0.7233504082952424,0.06173779594553421,0.8594302419766989,0.6010839366979447,0.25834630527875424,-0.7999065155851364,-0.146100072639953,0.0023506118642539456,0.8309018137242461,0.048483109061341616,0.9013846448404264,0.7229085945609499,0.17847605027947644,-0.5679228052109289,-0.739754667653823,201.02681130998118,-10.578765368852459,14.178392409225426,11.328125,-44.8359375,56.1640625,-0.012590653559787945,-1.0647542955587406,270.8644216735506,-3.5727459016393444,16.45795921958584,17.703125,-50.296875,68.0,0.8912304067315571,-1.2696654907495768,93.53615619263361,5.523309426229508,9.671409214413048,30.6796875,-4.640625,35.3203125,0.4050017829849071,1.2864274337479404,332.30716980797666,19.608169558949534,18.229294276191183,69.18995503633232,4.3100933048920185,64.8798617314403,0.9761934740892553,1.5283956834289087,192.57720151236765,14.569765268796717,13.87721879601124,56.63751769493903,1.799522506110996,54.83799518882803,1.6393078970672725,1.6353614347243555,237.05803546791537,14.10600765553315,15.396689107334582,51.864462644006665,0.2080238586827242,51.65643878532394,0.23146843213638713,1.2947416166457728,0.6644600990623106,0.47902151823431316,0.37349871534603113,0.7220439768328847,0.3629136593513963,-0.2754228944664706,0.9119123569256885,-0.8676245216359256,-0.866690292653394,0.9668994292463252,0.9720846610386259,0.8913837270764998
UMAFall_Subject_01_ADL_OpeningDoor_1_2017-04-14_23-36-58.csv,A,MA,0.0011021245698459815,-0.8153256275614754,0.033198261548550725,-0.723876953125,-0.89697265625,0.173095703125,1.7399554883891621,1.266066043356821,0.002512100290079586,0.45651095030737704,0.05012085683704525,0.579833984375,0.408447265625,0.17138671875,-0.010077741979935606,1.1090494346364643,0.0029048856490296745,0.3425773245389344,0.05389699109439853,0.40380859375,0.22021484375,0.18359375,-0.5012731101103425,-0.7422467339708195,0.0011449537383668648,0.9978994968619014,0.0338371650462456,1.0955605371620745,0.8921044426252266,0.20345609453684788,1.5720512321920745,-0.24332809620685367,0.0010717981137607397,0.5744870984424685,0.03273832790111217,0.6625998601687048,0.5093513062003981,0.1532485539683066,0.2783558757310427,0.10083493674707686,0.0014037563529611622,0.8858192139594843,0.03746673662011628,0.9295404462155831,0.7805932908837386,0.14894715533184444,0.3488714355680087,-1.0123955871254546,43.26932883340804,0.9985911885245902,6.57794259882283,26.4453125,-9.0390625,35.484375,2.573278364621988,1.248162471118547,56.11711355740908,1.744108606557377,7.491135665398744,30.6953125,-10.578125,41.2734375,6.464783637744729,2.4278034903824555,29.503653904649077,-2.7106813524590163,5.4317266043725985,2.765625,-22.6796875,25.4453125,3.986210824220935,-2.0937270193863906,71.43372425860943,8.24022796325339,8.451847387323639,38.34207619742189,1.655273149428441,36.68680304799345,5.7474350010886575,2.4725819490827434,61.525905279766356,5.838627635637937,7.843845057098359,34.92324259766204,0.6291367007902575,34.294105896871784,6.200509382399403,2.623973612979875,37.61835824611974,6.551587359469871,6.1333806539395335,29.270781087772175,0.8524579580908961,28.41832312968128,3.5800756110009617,1.943530119523025,0.00549947370870715,-0.04005381429350244,-0.6485810625829607,0.7412646656037206,0.6099450087798455,0.12203999770454602,0.6325978993756651,-0.46419305111581644,-0.6195835302431372,0.9580273591514535,0.958437127989823,0.8719279514407413
UMAFall_Subject_01_ADL_OpeningDoor_3_2017-04-14_23-37-35.csv,A,MA,0.0010472263794779127,-0.7531938396516393,0.032360877297717264,-0.718994140625,-0.842041015625,0.123046875,1.3654451428959513,-1.6674991337895737,0.0014917688942997832,0.49851914702868855,0.038623424165909775,0.583740234375,0.4130859375,0.170654296875,0.10647203542102135,-0.6267055976234774,0.0006352044845539365,0.37068951716188525,0.025203263371117966,0.440673828125,0.303466796875,0.13720703125,0.7706879089346454,-0.05762821871200141,0.0009605895305656263,0.9774509397983151,0.030993378818154473,1.0597019658722642,0.8981499584980126,0.16155200737425157,0.908364799672249,0.4669803489229784,0.001340078362117703,0.6218569394855634,0.03660708076476057,0.7074456449461568,0.5212111882641806,0.18623445668197625,0.6293456325367526,-0.555849036120034,0.0009868375389236064,0.8398784842932548,0.031413970441884716,0.9330170897465189,0.7907718235638166,0.14224526618270228,1.3751004398067082,1.463701758334913,22.350493284131655,-2.964267418032787,4.727630832048083,8.453125,-14.3125,22.765625,0.7028806875817644,-0.34516822267791647,16.634675006136867,0.48104508196721313,4.078562860388064,12.28125,-6.515625,18.796875,1.516881183010649,0.9806852467313816,13.701194254557292,-0.7578125,3.7015124279890363,6.8984375,-10.359375,17.2578125,0.16153745218960402,-0.1332545807694448,15.25953859885599,6.812182832007972,3.906345939475406,15.584887965916092,1.4350777826262588,14.149810183289834,-0.4283978258303347,0.797583197833605,8.35328277686837,4.735810423743779,2.8902046254319727,15.081737342545495,0.8810130998068361,14.200724242738659,2.3656575979219214,1.4505431530960986,13.21505399524546,5.64122536445006,3.635251572483734,14.51596137931019,0.641386742242931,13.874574637067258,-0.4095202305574501,0.6878158185753949,0.2388744592019606,-0.018376495888479453,0.1781769641994252,0.790023337289376,0.5906748622296556,0.027400473293709725,0.6567856440493653,-0.4185524402682467,-0.18779967385411087,0.8903309822958417,0.7262382629243508,0.45924960469908765
UMAFall_Subject_01_ADL_Sitting_GettingUpOnAChair_1_2017-04-14_23-28-16.csv,A,MA,0.0017737700965235138,-0.6727715163934426,0.04211615006768204,-0.597900390625,-0.718017578125,0.1201171875,-1.3603688231357431,0.6152223823436686,0.0019933011036753004,0.5878706134733607,0.04464640079194851,0.651123046875,0.53125,0.119873046875,-1.7643999826678187,0.1561068924616195,0.0008083528182545647,0.43752001152663933,0.028431546181215062,0.505859375,0.3662109375,0.1396484375,-0.6306322493938739,-0.1986294452601425,0.001169371479587389,0.996487504966393,0.034196074037634624,1.0609003535243944,0.921411753497831,0.13948860002656338,-0.48255232826049,0.11235167373211508,0.0017670601024667994,0.73350749957779,0.04203641400579739,0.8044434705163998,0.6677424621984934,0.13670100831790633,-1.3657760512502188,0.096036589943164,0.0014897613445595819,0.8031934559992981,0.03859742665722136,0.856897876136419,0.7122048620005015,0.1446930141359175,-0.8845909211874563,-0.4764270418450531,18.814207917093583,-4.733350409836065,4.337534774165341,2.796875,-18.296875,21.09375,1.3113970666456174,-0.9077292672782106,23.547197419046707,-2.2802254098360657,4.852545457700186,4.671875,-16.7421875,21.4140625,1.8406832521942595,-1.417317776576325,6.967552476893357,1.0372694672131149,2.639612183047608,6.359375,-4.6953125,11.0546875,-0.90945444311361,0.2017599846807607,25.194186522449744,7.240102297052407,5.019381089581637,20.084164339761873,1.7276403592581124,18.35652398050376,1.3014294094672554,1.4120915065632569,15.729956574644609,4.562650055347794,3.9661009284490745,16.86690524891218,0.5108682101334943,16.356037038778684,2.8076523421864383,1.7383997494942178,14.967568163343408,5.8410139907985785,3.8687941484839183,18.571107865802762,0.377999075106342,18.19310879069642,1.7332772115805701,1.2133121125616202,0.39457364536737255,-0.019159796644138867,0.15742419441507596,0.6698697043711654,0.6378311236639681,-0.08505764904009556,0.6286797317863257,-0.32281845182766594,-0.40434329848138834,0.9141306922488642,0.8548857784922143,0.6094405734461887
UMAFall_Subject_01_ADL_Sitting_GettingUpOnAChair_2_2017-04-14_23-28-52.csv,A,MA,0.0013269930263686046,-0.7386654713114754,0.036427915482066836,-0.594970703125,-0.813720703125,0.21875,2.955873907793567,1.0065754341148436,0.0018854844114168095,0.5887231045081968,0.043422164978462435,0.739501953125,0.533447265625,0.2060546875,1.6360248284740644,1.045202885255214,0.0014264890079289834,0.2461057569159836,0.0377688894187926,0.28076171875,0.124755859375,0.156005859375,0.9460409372138212,-1.1368195349877563,0.0008836998701362467,0.9779996527122082,0.02972708983631339,1.0434547463562958,0.8700586164393432,0.17339612991695252,2.306297987456804,-0.6484226727914364,0.0013769284028742304,0.6395828799584771,0.03710698590392691,0.749951440510707,0.5823505217186867,0.16760091879202021,0.5897363039239778,0.8353122487267061,0.001416971223688524,0.7794288440212574,0.037642678221515055,0.8450667738066177,0.6564371205539182,0.18862965325269943,1.2502298723609861,-0.8423014862430092,45.30716832895749,-4.604764344262295,6.731059970684965,6.3984375,-25.4453125,31.84375,1.2820750570573933,-1.1190393386991941,40.68879828114327,-0.5603227459016393,6.3787771775743405,15.6171875,-22.1328125,37.75,4.005560141559891,-0.8212894638104629,25.021269284441175,0.9171362704918032,5.002126476253991,21.0078125,-10.390625,31.3984375,4.931329903575985,1.4662156962785118,60.56244757527257,8.484492667585965,7.782187839886196,34.63251994857263,1.0390625,33.59345744857263,2.4126541444335388,1.6469639674084575,38.18209512401525,5.31336002196807,6.179166215923897,23.493563156014137,0.471993983343538,23.0215691726706,2.643206266555942,1.9285902651046742,41.00338704507352,7.133674063150006,6.403388715756175,27.59866997651619,0.8217992479348286,26.776870728581365,1.5498904353481562,1.467623850365544,0.36322485627695894,-0.16110213978728313,-0.43678221596051475,0.5800444766713696,0.5175651533589305,-0.3464351667776522,0.6244086988853413,-0.34878352279613783,-0.6969819134762961,0.9666988004006629,0.9028883648124736,0.8011372132041461
UMAFall_Subject_01_ADL_Sitting_GettingUpOnAChair_3_2017-04-14_23-29-29.csv,A,MA,0.0017768643592876165,-0.7606901575307377,0.0421528689330586,-0.721435546875,-0.9384765625,0.217041015625,3.9375688003701868,-1.8400855868904231,0.0013522495337522746,0.5524582159323771,0.0367729456768461,0.643310546875,0.470458984375,0.1728515625,-0.32201856043594645,-0.3645752557837522,0.0010534944755783496,0.24372038294057377,0.032457579632165265,0.325927734375,0.164306640625,0.16162109375,0.7402832519524014,-1.0028686488450633,0.0016835039617457905,0.9724800032176462,0.04103052475591545,1.1589138429970818,0.8982462140329204,0.2606676289641614,6.0010586353430835,1.8180493149296755,0.0013269775398428048,0.6047071912795082,0.03642770291746111,0.6799581142456118,0.5232010492355138,0.156757065010098,-0.5258701885244168,-0.5194722721079339,0.0016764790067688303,0.7994899027443563,0.04094482881596686,0.9639672379130182,0.7473337544214025,0.2166334834916157,2.926872384050556,1.5479197512066585,18.436898019926147,-0.7952100409836066,4.2938209114873604,12.515625,-10.125,22.640625,0.9102798435151351,0.364758267198312,15.971632293534412,1.1554815573770492,3.9964524635649568,8.1015625,-12.2109375,20.3125,2.033325972571461,-1.1384468920529622,8.695864051026723,-0.6493340163934426,2.9488750483916273,16.4140625,-4.8046875,21.21875,18.357986591855493,3.3936566252643683,12.627108025850657,5.689181839008682,3.553464228868873,21.088244362510807,0.9401979408447724,20.148046421666034,5.294125161694293,1.8321838557668917,9.254868045080578,4.112995812794887,3.042181461563491,20.45796769923182,0.46417033679727965,19.993797362434538,13.691547869608995,3.0436052890684038,10.313306594496161,4.194963691413898,3.2114337288034083,17.19322702880592,0.6165938600742388,16.576633168731682,3.8566452724483584,1.7144529591313202,-0.06754392252773521,0.04771038643582107,0.0583857962648319,0.8677110864373299,0.5819144304500575,0.1384241912174694,0.30302425873271643,-0.208511037637607,-0.6102186612724031,0.9306650219056353,0.7929076377277035,0.5862578441440022
UMAFall_Subject_01_ADL_Walking_1_2017-04-14_23-25-52.csv,A,MA,0.01848651932888344,-0.7510125832479508,0.13596514012379585,-0.476318359375,-0.987548828125,0.51123046875,-1.1613367989263637,-0.10567741904296003,0.00929757043963573,0.5397829149590164,0.09642391010343716,0.80078125,0.350341796875,0.450439453125,0.18282890013706155,0.5626417865143143,0.0072656966949421215,0.31558977971311475,0.08523905615938109,0.50048828125,0.118896484375,0.381591796875,-0.5014929527047687,-0.24883487725335166,0.017962095423873097,0.9857940806754508,0.134022742189052,1.295813114257926,0.7317644754769378,0.5640486387809881,-0.6781282628852416,0.16131859158028777,0.010004637956029062,0.6304074991689503,0.10002318709193915,0.8828959805338223,0.43526850130920813,0.4476274792246142,-0.06047636431436221,0.3983184969912007,0.015355588219121037,0.8208794068189604,0.123917667098445,1.043964325149161,0.5816027196621174,0.46236160548704364,-0.8739029173201862,0.12443532117933047,744.6481727808552,-1.2394979508196722,27.288242390833002,61.1015625,-60.7109375,121.8125,-0.37635120991280324,0.11694129916931012,271.23947276964867,3.361296106557377,16.469349494428997,53.078125,-26.109375,79.1875,0.9610125767022843,0.8440153812864235,822.5597442126667,-3.9228995901639343,28.680302373103856,88.3203125,-44.828125,133.1484375,1.8502620148085427,1.3894292729653785,410.24683810329753,37.855134866259846,20.25455104669806,111.00117835716739,8.490235947564267,102.51094240960312,2.954515126802855,1.5823326481742688,331.3296043865667,27.868576631403023,18.202461492517067,103.04253953398704,6.3522543442392365,96.6902851897478,6.5064620420318064,2.279894542175709,404.8774985769706,34.06172805008465,20.121567994989125,97.48832875356959,2.9925240509162996,94.49580470265329,1.073600521256668,1.0963819341314647,-0.3413715947298902,0.15869641117967312,0.18687898603285763,0.9283142213563494,0.6511311163542276,0.36909579765692013,-0.1431364756367599,-0.5517696351896898,0.6374468162583367,0.969586344437869,0.8493802219214466,0.7624171197789776
UMAFall_Subject_01_ADL_Walking_2_2017-04-14_23-26-33.csv,A,MA,0.07171828642568955,-0.44210665343237704,0.26780270055712574,0.08154296875,-0.92822265625,1.009765625,-1.07291768942686,0.18270811032924697,0.018995862156966994,0.6354660284323771,0.13782547716937893,1.084228515625,0.38037109375,0.703857421875,1.1466667350268906,0.8729356376186869,0.05291467084259283,0.5400230532786885,0.23003189092513418,0.96826171875,0.233642578125,0.734619140625,-1.5416370328562896,0.29036638965325257,0.01660771622056376,1.007888413670198,0.12887092853147197,1.3615656772705158,0.7791923127739068,0.582373364496609,0.11712688638652535,0.5428021039451666,0.03165948612250804,0.8573407519846561,0.17793112746933304,1.1866429147102395,0.5458460801458611,0.6407968345643784,-1.1039048727384149,0.10274629146655521,0.013720155405269833,0.7721254757428572,0.11713306708726547,0.9697638405571631,0.478514130259145,0.4912497102980181,-0.18359789531647674,-0.5222734562104361,1167.4580393306544,-0.7264344262295082,34.16808509897291,71.6796875,-60.34375,132.0234375,-0.8694040664405951,0.17400555650269692,384.562782796224,-21.3671875,19.610272379450112,14.2265625,-60.8828125,75.109375,-0.6220047615666897,-0.07845304291451997,700.6311299641927,-7.4296875,26.46943765863175,59.21875,-75.421875,134.640625,0.7687854318112333,-0.44412366940721465,466.1823835713548,47.63893205282802,21.591257109565316,89.78884905460578,10.633202830822247,79.15564622378353,-1.0104127388009374,0.3768030613735141,351.5998935128457,35.11872500237314,18.75099713382853,76.08295170109254,4.418319296990231,71.6646324041023,-0.7566258769857916,0.5436222488417916,477.23523763355763,37.73302281634699,21.845714399706814,88.35461035175332,1.218775039806875,87.13583531194645,-0.3993569627180835,0.4499430649863214,-0.21460224659252553,0.8314476607329102,-0.101658356733598,0.7072705500802098,0.6747350932626176,0.449737038154715,0.5929673600385137,-0.5453093344438061,-0.3488454664537893,0.9066425131712328,0.8301427104565299,0.6532843952171223
UMAFall_Subject_01_ADL_Walking_3_2017-04-14_23-27-12.csv,A,MA,0.006657766514137143,-0.6102354956454918,0.08159513780941327,-0.472412109375,-0.901123046875,0.4287109375,1.5885675888212472,-0.7439689120579385,0.008344358401220353,0.6850866098872951,0.09134745974147476,0.844970703125,0.489990234375,0.35498046875,-0.8545501473609272,-0.038037682665571185,0.00656480101939759,0.3225858094262295,0.08102345968543673,0.50927734375,0.16796875,0.34130859375,-0.43704233948958215,0.09669444729682189,0.011064603465104182,0.9778153102117897,0.10518841887348712,1.3304802374979454,0.8182768495596888,0.5122033879382566,0.8840555543793407,0.8872923338984212,0.00882056043219631,0.7611793831813192,0.09391783873256619,0.9788538791685436,0.5499712893188263,0.4288825898497173,-0.42178860970955867,0.19411473666763443,0.0072513738506275426,0.6944942547283963,0.08515499897614669,1.0350778514036223,0.5339328118678522,0.50114503953577,3.10726949547393,0.9915456087813199,139.32602642455385,-2.44390368852459,11.803644624629879,23.5546875,-30.5078125,54.0625,0.39348236284391946,-0.017787669509328332,186.39091093136312,2.4897540983606556,13.652505664945286,33.90625,-21.8515625,55.7578125,-0.29448895787358786,0.4847666820832663,115.91456609006786,-1.7300204918032787,10.766362714030578,22.9140625,-26.1953125,49.109375,-0.251746490750794,0.3556981676339351,77.88946407871352,19.311746858492526,8.825500783452094,42.195659656505626,4.723184485036287,37.47247517146934,-0.45292703607139995,0.3744227672744294,76.1426404584882,15.21995714352269,8.725975043425704,35.009290061710765,1.2325193726291892,33.77677068908157,-0.8903304524431399,0.3059605182142641,56.18604139848442,14.309332545385235,7.495734880482662,32.33446802199821,2.2924196797884218,30.04204834220979,-0.402355515647447,0.5959592947592623,-0.4400962923086818,-0.1273102391139665,0.16586226144593869,0.8427600949539407,0.8948536675913381,0.5837417695410586,0.3229977421017249,-0.28580417528027535,-0.2751265093294271,0.7312616969673803,0.8287209790993555,0.3723317227267465
UMAFall_Subject_02_ADL_Aplausing_1_2017-04-26_19-47-07.csv,A,MA,0.00010422940462664828,-0.9605933017418032,0.01020928031874178,-0.9091796875,-0.968505859375,0.059326171875,19.115635667766497,4.138344189602373,0.0003741968850620457,0.17592133068647542,0.01934416927815836,0.2509765625,0.157470703125,0.093505859375,6.67568546307888,2.5007889557100564,0.0006762655054936644,0.24866723232581966,0.02600510537363124,0.2802734375,0.218994140625,0.061279296875,-1.9679000935601592,0.11053210292159743,0.00015932542055058474,1.0082173611217886,0.012622417381412513,1.02586931953145,0.9499525522630359,0.07591676726841423,12.097105858001578,-2.956968831102815,0.0006142682610721031,0.30530763244493725,0.02478443586350319,0.3688247378629504,0.27044666025980946,0.09837807760314093,-0.6603359338980797,0.33110727150897895,0.00014679960033175726,0.992571504046882,0.012116088491413277,1.0081765751851282,0.9363962669865221,0.07178030819860604,13.339426019520365,-3.173119713856728,2.96687178481472,-3.1625256147540983,1.72246096757364,0.40625,-6.5625,6.96875,-0.5506738876776907,0.17703915256354755,2.232498018858863,-0.05507172131147541,1.494154616784643,2.78125,-4.4140625,7.1953125,1.3879300988078462,-0.29154870005052974,1.7318202618041327,-0.953765368852459,1.3159864215880546,0.859375,-2.9921875,3.8515625,-1.600382159652653,-0.107250293773205,2.808575917325449,3.8690179434766425,1.6758806393432228,7.869336225929017,0.6207374174369144,7.248598808492103,-0.2587515304051551,0.12353798556329028,1.2970995431406724,1.880477363197007,1.1389027803727025,4.602842298684857,0.2666570025918127,4.336185296093045,-0.7628938157228151,0.4249546935313289,2.5009898919227096,3.6156480599359857,1.5814518304149228,6.9375,0.38590903235088964,6.55159096764911,-0.6859711563649689,-0.12631867689498477,-0.0117220542067577,-0.043563450484925624,0.03340166852158542,0.953361821730607,0.6378731951717207,0.5109980497207598,0.29754870319932886,0.21781127023018815,-0.10474011359510864,0.9779525328377766,0.6484769978192084,0.5398781939749897
UMAFall_Subject_02_ADL_Aplausing_2_2017-04-26_19-47-43.csv,A,MA,0.0001825341110021039,-0.9562868212090164,0.013510518531947761,-0.906494140625,-0.96728515625,0.060791015625,8.95627947269125,3.0761757246424772,0.0007837722210284789,0.24319608094262296,0.027995932222886932,0.26953125,0.1796875,0.08984375,0.8374694117061035,-1.6296838439909642,6.006037602659131e-05,0.2628393954918033,0.0077498629682460395,0.275634765625,0.2197265625,0.055908203125,15.1151695261505,-2.7782872085685284,0.00017940500285425518,1.0215412096990886,0.01339421527579183,1.0375784694917214,0.9757398268227716,0.061838642668949784,4.157749347508943,-1.985143270352506,0.0003716876121152144,0.35873846533591425,0.019279201542470953,0.38255831005966023,0.313652298293837,0.06890601176582323,0.45763888300284705,-1.383954833659383,0.00017584497218825273,0.9917835890460382,0.013260655043709295,1.0046613057994855,0.9428448270895444,0.061816478709941114,8.163280787227944,-2.902991461236891,2.535510587431694,-3.0888831967213113,1.592328668156073,0.9453125,-6.9375,7.8828125,-0.06146872811354642,0.4564255203891021,1.1306507881873291,-0.11821209016393443,1.0633206422276062,2.265625,-2.84375,5.109375,0.7601116456911412,0.35484944616044456,1.7303172293907956,-1.2143954918032787,1.3154152307886646,0.8671875,-2.921875,3.7890625,-1.7280922815674173,0.32905776718117025,1.91122042684376,3.8023746146265562,1.3824689605353748,7.633232300379866,0.3304419684774469,7.302790331902419,0.046579691607394835,-0.1963296898873589,0.9406738402811076,1.8378096891831228,0.969883415819194,3.508125682010445,0.125,3.383125682010445,-1.3672181199883493,-0.2508467519767639,1.9958748934585204,3.639875876160806,1.4127543641619091,7.355845258884682,0.2543565718140579,7.101488687070624,-0.3507623003906497,-0.14720300562116753,0.15452357821416562,-0.05105135587513601,0.08294398872406489,0.8936449444102686,0.3647840536320306,-0.07309946777916312,0.04615425176566116,0.1315776189297715,0.06656682603279797,0.9827769315723031,0.49906269855690844,0.4114666197473526
UMAFall_Subject_02_ADL_Aplausing_3_2017-04-26_19-48-18.csv,A,MA,0.0001351520989110561,-0.9518082415471312,0.011625493491076245,-0.873779296875,-0.965087890625,0.09130859375,34.415102021611794,5.137869997095848,0.0004237701658342705,0.26078621285860654,0.020585678658578892,0.28076171875,0.21875,0.06201171875,-0.31727414956478617,-1.1027402852005315,0.0004888655709438637,0.2553991098872951,0.022110304632543255,0.280029296875,0.18701171875,0.093017578125,0.10053995204246169,-1.1058532816577635,0.00016480022592451957,1.0198262573735029,0.012837454028136559,1.0386609613792794,0.950754281557219,0.08790667982206046,13.030213015535091,-2.6859824097406886,0.0004472523481854416,0.3656445108313144,0.02114834149964109,0.39429489458742056,0.3133549439471933,0.08093995064022724,-0.37279545085048493,-0.6467944212376426,0.00014406072417314894,0.9857178718108422,0.012002529907196604,1.0029078465417138,0.9152006578604794,0.0877071886812344,19.34003342919496,-3.498318751167906,8.401591216540726,-3.3922899590163933,2.8985498471719833,2.7890625,-8.8046875,11.59375,-0.4260471344552612,0.32277130067535287,3.3271393322553786,-0.2065829918032787,1.8240447725468196,4.234375,-3.421875,7.65625,-0.4088548117392685,0.27618057622359626,6.149474864188438,-1.2683145491803278,2.479813473668622,2.4140625,-6.96875,9.3828125,-0.3992365219130618,-0.6002909872757061,3.5352595912898317,5.221756893664334,1.8802286008062508,9.084375537495685,1.6777969011195157,7.406578636376169,-0.5270799741335721,0.25985711249605126,3.2299607511558523,2.7920507908367407,1.7972091562074384,7.538507913539655,0.14149039278339715,7.397017520756258,0.4811985276615669,0.9324010895646571,3.7049948409514992,4.8769375385512035,1.9248363153659325,8.814054744279517,0.918890826792008,7.895163917487508,-0.6058584023174562,0.23829451784313563,-0.020498976978010532,0.08467401628070836,0.030950506628357594,0.919605717142183,0.5414630803147591,0.2929486158544952,0.262828550605306,-0.45660574533882015,0.33090804563096804,0.9753408319265691,0.43811914273256886,0.325755105732732
UMAFall_Subject_02_ADL_Bending_1_2016-06-13_20-25-34.csv,A,MA,0.00037461551812177147,-0.954193615522541,0.01935498690575045,-0.90625,-0.968505859375,0.062255859375,1.1464627688565692,1.6593034427450535,0.0007119583953273753,-0.31084704789959017,0.02668254851635007,-0.28173828125,-0.34326171875,0.0615234375,-1.9850373797498262,-0.1651432732715388,0.001531428359245342,0.09699186731557377,0.03913346853072625,0.147705078125,0.04638671875,0.101318359375,-1.962722591586092,-0.0800802342914683,0.0004131745175833265,1.0093004748116612,0.02032669470384515,1.0347845021790827,0.9592837548121783,0.07550074736690437,0.5324859381710283,-1.0855042885662403,0.0008683753445967892,0.32769769567784973,0.02946820904969946,0.37128724524681855,0.2868123496797741,0.08447489556704446,-1.5325319488298252,0.16595624307393206,0.0003781408429002095,0.959893605392326,0.019445843846442084,0.9767910194053654,0.9090501998326247,0.0677408195727407,1.2941687425801236,-1.6573166482972441,3.0721226426421615,-3.330686475409836,1.7527471701994448,1.171875,-8.65625,9.828125,0.4999416446816185,-0.07424107635203957,2.4599538000554984,-0.0860655737704918,1.5684239860622824,2.9140625,-2.8984375,5.8125,-0.8172413958660152,0.08761936221849417,4.866170180690743,-1.6091188524590163,2.2059397500137536,2.4765625,-4.984375,7.4609375,-0.9469940913830053,0.29706944751787834,2.4139926388108686,4.641498436582712,1.5537028798360608,8.946758889615069,1.3645062995113837,7.5822525901036855,-0.030423596415961374,0.17256390325835066,1.5286527881452143,2.8808161075595184,1.2363869896376354,5.3180634930777435,0.49834932605678317,4.81971416702096,-0.8123441371997493,0.32289018095164723,2.7047453162992334,4.33941096522093,1.644610992392801,8.814747192427372,1.2088944458677937,7.605852746559579,-0.21633919758220665,0.244702668617321,-0.021933114996911907,0.050037801580085056,-0.16667775162539442,0.9136117794944155,0.4381324427912513,0.06872713614827555,-0.20485747373043545,0.38102487172027427,-0.24924629527292164,0.9799027094696584,0.566782106707462,0.4985433542335811
UMAFall_Subject_02_ADL_Bending_2_2016-06-13_20-26-15.csv,A,MA,0.001369215849318791,-0.8305023693647541,0.03700291676771969,-0.74951171875,-0.947021484375,0.197509765625,0.5746578366769399,-0.6959250829996768,0.0034395629265269296,-0.5419681736680327,0.05864778705566758,-0.34619140625,-0.6357421875,0.28955078125,2.5821991753416746,1.6155376290148926,0.0009357310057989237,0.1958368019979508,0.030589720590402974,0.266845703125,0.109375,0.157470703125,1.9458009854266942,-0.7398182294103854,0.0008094360146085289,1.0132472110618977,0.02845058900284015,1.07450635354501,0.9415507225518004,0.1329556309932095,0.7777626158803725,-0.4602880707429368,0.0029350245153943943,0.5774930412816512,0.05417586654031843,0.6698998539366551,0.39629250379697295,0.2736073501396821,3.4734776708012083,-1.7836050001516075,0.0013826259278176393,0.853811126332606,0.037183678244864904,0.9533166223730857,0.7685318862266515,0.1847847361464342,0.2825660993940149,0.5864057212157774,158.11077977581755,-2.7588370901639343,12.574210900721267,40.8828125,-23.390625,64.2734375,2.9658236329526506,1.3031951098370915,51.335108655919136,-1.5040983606557377,7.164852312219641,8.7265625,-24.84375,33.5703125,1.974942794087469,-1.4525308266991657,79.74278504418545,2.5007684426229506,8.929881580636188,23.578125,-14.765625,38.34375,-0.10996643638537407,0.6083490753486838,101.75972936739365,14.15922579944311,10.087602756224774,49.331639509936025,3.1758172853121605,46.15582222462386,2.292417494253562,1.5254458042040808,53.325418525736836,9.21921900791767,7.302425523463888,33.99407189243626,0.8059380452692998,33.18813384716696,2.205974722057742,1.6153172933504325,86.21524941287622,12.767829348708498,9.285216713296261,43.77268733740574,2.115630192940451,41.65705714446529,2.080296398148671,1.443821329771833,-0.5514978380471695,-0.007799920734452175,0.09398323368479053,0.5488139216933255,0.41186055638003777,-0.5143049555169662,-0.43820414601557817,0.331671058822166,-0.7237408572115989,0.9830931633092765,0.8538730580145805,0.7820051053874466
UMAFall_Subject_02_ADL_Bending_3_2016-06-13_20-26-59.csv,A,MA,4.173999275666116e-05,-0.8608518506659836,0.006460649561511688,-0.84765625,-0.87353515625,0.02587890625,-1.0914201390447813,0.05847917732890468,0.0007008727782411003,-0.4401375192110656,0.02647400193097183,-0.370849609375,-0.468017578125,0.09716796875,0.6118078434982279,1.2007925484861783,0.0014560491009488134,0.11234871285860656,0.03815821144850494,0.148193359375,0.05029296875,0.097900390625,-1.1919273049961614,-0.8794635660366881,0.00015788806453063874,0.9743800574685441,0.012565351747191112,0.9946799323692641,0.9458116836982945,0.048868248670969616,-0.5110364335398407,-0.5914727430161677,0.0007509834925665834,0.45576985345084814,0.02740407802803414,0.4897556475147719,0.376238130021028,0.11351751749374389,0.9506978019252319,-0.9849287734944113,2.8338519716170055e-05,0.8689841789678061,0.005323393627768855,0.8814409116824897,0.858149539071537,0.02329137261095271,-0.12906202119818744,0.37331226630846204,6.481437774824966,-4.913422131147541,2.54586680225517,0.09375,-12.03125,12.125,0.6619112479570672,-0.7507415967920162,2.5403868961855363,1.0075563524590163,1.5938591205578791,6.265625,-2.296875,8.5625,1.1438085831064244,0.4839018103143441,3.080171478771773,-1.9089395491803278,1.7550417313476545,0.96875,-6.546875,7.515625,0.28175357623503583,-0.5330445341776733,7.300295303417483,5.789984584064373,2.701905865017781,12.612039390901705,0.3501708567346089,12.261868534167096,0.47026640476495807,0.7705227996495869,2.673502595048773,2.749175039148886,1.635084889248498,7.039079841821035,0.16424840657522374,6.874831435245811,0.4531061229887019,0.8300438307250945,7.0189633331770835,5.503338118059622,2.649332620336126,12.210737562342672,0.24519304416367524,11.965544518178996,0.2727581302238482,0.6414070103633283,-0.05465066587666114,0.5597211562331005,-0.07432400036576878,0.3823756607133347,0.8942225229401822,0.030716633901820185,-0.43016330621405247,0.3356266299488821,-0.38671154940490443,0.9909139764345601,0.6975213626969935,0.6508774438433077
UMAFall_Subject_02_ADL_HandsUp_1_2017-04-26_19-42-49.csv,A,MA,0.0001089921414526434,-0.9147188780737705,0.0104399301459657,-0.906982421875,-0.9677734375,0.060791015625,21.243270891006865,-4.460559949312482,0.0012492094860702264,0.13533395235655737,0.035344157736042124,0.205078125,0.103515625,0.1015625,-0.773104385790087,1.0481784902506481,0.0005629034967370372,0.2596495581454918,0.023725587384447137,0.28125,0.218994140625,0.062255859375,-1.0521549964390289,-0.8968395538263538,0.0001855125642508378,0.9613276953427969,0.01362029971222505,1.0237511307147702,0.9406850434463134,0.08306608726845677,9.425722464172539,2.472506702900023,0.0006488513740697866,0.2947496623439886,0.025472561199647487,0.34335807652493744,0.24233143128912768,0.10102664523580976,-0.12836476114425954,-0.2214919356996604,0.0001533520039317241,0.9511248928866435,0.012383537617810353,1.00649515447194,0.9343476064997872,0.07214754797215284,10.803371492944098,2.636100573996943,3.487341908939549,-3.085297131147541,1.8674426119534568,2.4296875,-6.8203125,9.25,0.9547479306254774,0.7710085936839053,3.0270505477821885,0.012935450819672132,1.739842104267565,4.9296875,-4.28125,9.2109375,1.5954279083041811,0.01914559938414316,9.80597560861723,-1.4040727459016393,3.13144944213015,8.8671875,-8.4296875,17.296875,1.5438506343513438,0.3050647817814872,4.56719119041148,4.80116109220779,2.1370987788147464,10.204796833742883,0.7530050475013431,9.45179178624154,0.01631664954693912,0.7071275679916932,5.926427772150049,2.96056803022479,2.4344255528050245,9.027795890072642,0.04555431167847891,8.982241578394163,-0.25630575164612734,1.0120769774911054,4.255725215522543,4.514411779449482,2.062940914210231,10.06299130205887,0.06720566614877052,9.9957856359101,0.28473250422617635,0.6541258017264099,-0.12175174582468078,-0.11073780424716509,-0.14124657853592762,0.911001106640857,0.6971219036099042,0.5019854108883838,0.0481697141167675,-0.2741745777029762,0.4835442792920265,0.9767037081636581,0.8401324614247924,0.7796104062199247
UMAFall_Subject_02_ADL_HandsUp_2_2017-04-26_19-43-25.csv,A,MA,0.0003643381465328196,-0.9213306864754098,0.01908764381826158,-0.90625,-0.96728515625,0.06103515625,1.689237314981562,-1.7986744626723796,0.00011473978803457461,0.1113401319159836,0.010711665978482273,0.15478515625,0.093994140625,0.060791015625,6.772414410810873,1.96614741143236,0.000499689644151698,0.24300797259221313,0.022353738930024614,0.28125,0.218994140625,0.062255859375,-1.0357797845496908,0.8892382667738137,0.000388919493386559,0.9596248808801727,0.01972104189404198,1.013541328976383,0.9405835620966257,0.0729577668797573,1.4262338457298203,1.5948703281307501,0.00044270232797915594,0.26761616472893396,0.02104049257928996,0.30668610642503114,0.24622281035759677,0.06046329606743436,-1.1028227072524364,0.8236020240168038,0.0003961595819009989,0.9530809550204934,0.019903757984385734,1.0068005353029728,0.9342596639940287,0.07254087130894404,1.4924717266385095,1.6302089911329105,5.305754447895322,-2.9058657786885247,2.3034223338101336,0.984375,-8.4375,9.421875,-0.4393659029260033,-0.30346128540522965,4.352647991910007,0.07569159836065574,2.086300072355366,4.6328125,-4.78125,9.4140625,-0.11133164107296656,-0.11292234521907199,4.111900521366974,-1.6038678278688525,2.0277821681253076,2.859375,-6.125,8.984375,-0.2468811907108921,0.5246110320800348,2.929408152021466,4.656753415546477,1.7115513874907367,8.842718165291782,1.182065070980126,7.660653094311655,-0.1912340040431859,0.2523041665857415,2.2216146134622874,2.9527465093475858,1.4905081728934892,6.43602550619606,0.20551478809321727,6.230510718102843,-0.3895920163845963,0.1445535665252698,2.8162249357199283,4.184454301588665,1.678161176919526,8.834086068188165,1.1816519240162264,7.652434144171939,0.198994242203256,0.599852270107993,0.0897415836141191,-0.0954925725963315,0.025817592288380667,0.997609394910259,0.3751507155714304,0.3574818539323711,-0.07530218570128012,-0.29086155516992096,0.17099220546556146,0.9329081848535562,0.4391028667888747,0.20961046411260761
UMAFall_Subject_02_ADL_HandsUp_3_2017-04-26_19-44-00.csv,A,MA,0.0007397998551853367,-0.9361752369364754,0.02719926203383718,-0.90625,-0.968505859375,0.062255859375,-1.9833746352386137,-0.09498909780855438,0.001257803401008981,0.1413173988217213,0.03546552411862795,0.196533203125,0.10302734375,0.093505859375,-1.466188400254389,0.6941795672307556,0.00028522718148153335,0.2410428406762295,0.016888670210574108,0.32666015625,0.2197265625,0.10693359375,16.810622284002505,3.784377477180392,0.0006873944552680154,0.977786077727762,0.026218208467933414,1.0207415883364441,0.9434356026821511,0.07730598565429303,-1.7798167201177337,-0.032680926552093724,0.0006216605573507307,0.28103117949704753,0.024933121692855283,0.3690828954372936,0.2529340471164456,0.11614884832084799,1.6291330433665392,1.3145939876156558,0.0007061078231915109,0.9668709408830012,0.026572689423381875,1.0016426958896243,0.9364507843890111,0.06519191150061321,-1.9566537061397455,0.03673033217093094,3.5825607883474215,-2.2686987704918034,1.8927653812206682,1.7890625,-8.4375,10.2265625,1.0362116420322431,-0.314942386370239,4.341509009189294,0.22015881147540983,2.083628807918842,6.421875,-4.9609375,11.3828125,0.5919158825387707,0.3868383261488267,2.8149859652493174,-1.0526383196721312,1.6777919910553027,2.7421875,-4.1796875,6.921875,-0.3663957737972292,0.6084575030514453,2.3400356016327732,3.8163913257940196,1.5297174907912812,9.187991589739566,1.3105454196154362,7.87744617012413,1.8095555164208301,0.9965499323617057,1.5197045557316489,2.5886099267198848,1.2327629762982213,6.8308597212393405,0.3542432515235823,6.476616469715758,2.418821842441246,1.000939389854308,2.0001733366473973,3.252741439373883,1.4142748448047138,8.795653778464963,1.067314459871129,7.728339318593834,2.8449921298621,1.2136048834344135,0.13447850255781416,0.03369742660285726,0.0853074046183871,0.9774940849764274,0.1694315490147231,-0.002441853205679075,0.11041261146060236,-0.03973105746576073,0.41610338559922816,0.8624970395768313,0.6613773650053643,0.3065350803539323
UMAFall_Subject_02_ADL_Hopping_1_2016-06-13_20-37-40.csv,A,MA,1.8548965454101562e-05,-0.91845703125,0.004306850990468739,-0.9072265625,-0.927001953125,0.019775390625,-0.1511810344895177,0.22462063990805028,0.0006438738987094066,-0.2509045210040984,0.025374670415778934,-0.219482421875,-0.28125,0.061767578125,-1.9483612862410251,0.07301145032258631,0.000615043294885771,0.0546995069159836,0.02480006642905964,0.09375,0.031494140625,0.062255859375,-1.3309496989512415,0.788190380431609,4.848579872887837e-05,0.9543150769588681,0.006963174472098079,0.9693849082750298,0.9396456324920621,0.029739275782967645,-0.511378943111402,-0.02146847860411499,0.0006647647275069474,0.25793318316741237,0.02578303177492801,0.2962327334043969,0.22272075588692725,0.07351197751746963,-1.7554689774695544,-0.05618990325017325,1.9570844975938693e-05,0.920412575859292,0.0044238947745102045,0.9305930015437722,0.9117126255434425,0.018880376000329768,-0.5386913606642376,0.04059804488059186,2.5798800108862703,-3.746157786885246,1.6062004890069828,0.1015625,-8.3984375,8.5,0.12682387983647203,-0.1089202886732117,3.2542345724470634,0.15945184426229508,1.803949714500674,4.2890625,-4.1796875,8.46875,-0.1499402486627801,-0.27619805416503335,29.549081003991635,-1.117827868852459,5.435906640477891,10.46875,-12.7421875,23.2109375,-0.5050323972816835,-0.09229930143283843,7.468031076208402,6.53958722417984,2.7327698542336862,13.693817213721399,1.7755356531111253,11.918281560610273,0.3893313883422511,0.7609501727654192,9.785045235106496,4.890387068753748,3.128105694363043,12.986626421835368,0.35329434545609417,12.633332076379274,-0.10637310501251829,0.7744549322039538,7.583280548518007,6.27905483099308,2.7537756895793106,13.462225163309974,1.5746790967725774,11.887546066537396,0.37530285943207664,0.7426179952852725,-0.27784795600279716,0.11160853548715807,-0.04745765322657309,0.37833557763788106,0.8246886337476558,-0.1682004850129192,-0.0892513610563914,-0.23355480689691194,-0.5159237462559625,0.9936433561016146,0.923840232188659,0.9091470589584402
UMAFall_Subject_02_ADL_Hopping_2_2016-06-13_20-38-22.csv,A,MA,6.379937865043597e-05,-0.9229996477971312,0.007987451323822635,-0.909423828125,-0.9658203125,0.056396484375,12.932117653000079,-2.565593621283697,0.00013356703878100452,-0.2617227523053279,0.01155712069596076,-0.18701171875,-0.27783203125,0.0908203125,29.29476227497937,4.512633003176427,0.00022497154324432547,0.050697201588114756,0.01499905141148351,0.126708984375,0.03515625,0.091552734375,20.914392977330458,4.35917519502224,6.812698328073574e-05,0.9609088195020539,0.008253907152417923,1.0042185613009695,0.9453924476297663,0.05882611367120327,11.954550576209437,2.3536182255762483,0.00015727399536348864,0.26695874304909045,0.012540892925286007,0.2956334302801057,0.19156188865178242,0.10407154162832327,21.75979861389017,-3.403213984664329,6.467990885468007e-05,0.9245101262140776,0.0080423820385928,0.9671672381372477,0.9101031046401238,0.057064133497123914,12.3432451504281,2.4300354394313732,3.3068289001131315,-3.4633709016393444,1.8184688339680533,0.078125,-8.2734375,8.3515625,-0.4858456530574973,-0.3189049533298472,2.0791097672259222,0.41688012295081966,1.441911844471056,2.9921875,-2.625,5.6171875,-0.3300991453361335,-0.14902171111432266,7.106381075499487,-1.6168032786885247,2.665779637460585,4.3203125,-9.1328125,13.453125,-0.013155459058393326,-0.2825852999953882,2.913907703640019,4.919773243984577,1.70701719488704,9.306524010615147,1.4537339114006558,7.8527900992144914,0.16571204383613303,0.3764828425636572,2.979285844964805,2.9819969502185946,1.7260607883167978,9.163556305286516,0.28437929255002026,8.879177012736495,1.8836280996335857,1.2136313011745041,3.0839889559836706,4.670980699989331,1.7561289690633972,9.276254047844757,1.376087105766292,7.9001669420784655,0.08741365501561749,0.36664706245662765,-0.014265454865706637,0.004289114675156106,-0.12299071669899529,0.9377769839784059,0.36729421389350536,0.04659408633353482,0.1142534493129359,-0.29621349045539463,-0.3142759920201021,0.9794690392527986,0.5772162589848203,0.5297292318198173
UMAFall_Subject_02_ADL_Hopping_3_2016-06-13_20-39-00.csv,A,MA,0.0003029503457533207,-0.9224273181352459,0.01740546884612192,-0.90625,-0.96826171875,0.06201171875,2.4839498792900105,-1.8741856518928715,0.00035826866743994545,-0.24107485911885246,0.018927986354600572,-0.219482421875,-0.280517578125,0.06103515625,-0.5034658193503829,-0.9684196328597235,0.0006533239382863694,0.059594326331967214,0.025560202234848797,0.09326171875,0.03173828125,0.0615234375,-1.9066240922279887,0.20138656040715777,0.0003553057622029966,0.9557636949904355,0.018849556021376116,1.0089437656005995,0.9359073143678217,0.0730364512327778,1.9032079225302878,1.5965804807065491,0.00046995687742199985,0.24940194041788322,0.021678488817765868,0.293529431747122,0.222801963910157,0.07072746783696499,-0.7744636130615472,0.796603468486592,0.00031144328202970027,0.924693409176858,0.01764775572217896,0.9725117403709334,0.9068055916218779,0.06570614874905545,2.4276314710897315,1.8244525469495385,8.83848696849385,-4.006147540983607,2.972959294792623,2.578125,-12.0625,14.640625,0.12642187972385832,-0.014520943037731448,4.973794405577612,0.03944672131147541,2.2302005303509396,4.5078125,-4.9296875,9.4375,-0.07821802697359814,-0.23810577240377995,47.343950348734204,-0.022412909836065573,6.880694031035983,16.6953125,-15.953125,32.6484375,0.2294802536447711,0.21690967990154314,18.701627747499547,7.60328240718674,4.324537865194332,18.835167899561913,1.2980040266212582,17.537163872940656,-0.36022381840651496,0.7876329770691197,19.374920917391467,5.692524565327879,4.401695232224906,17.364307214486345,0.20085875206535064,17.163448462420995,0.0004117359546702559,0.9896399661698331,18.54317333845032,7.285049575879897,4.306178507499465,18.220259170447637,1.0481568644530264,17.17210230599461,-0.42088858809283547,0.7780356230795075,0.20088282502531532,-0.10072035809750368,-0.4089021625290356,0.9670999129838163,0.48992296245892053,0.2628173552005957,-0.11720262919086048,-0.5640230463716474,-0.4572097486319302,0.9971150545895087,0.9409007623921277,0.9352071864979717
UMAFall_Subject_02_ADL_Jogging_1_2016-06-13_20-40-29.csv,A,MA,0.0025868413878268885,-0.9373198962602459,0.0508610006569561,-0.802001953125,-1.1298828125,0.327880859375,3.3141032201255003,-0.23732446058423332,0.0009155474725316782,-0.31696257044057374,0.030258015013078406,-0.24658203125,-0.398193359375,0.151611328125,1.342705005300437,-0.18740628333630524,0.0006780810043460032,0.06071897412909836,0.026039988562708765,0.09375,-0.01220703125,0.10595703125,1.5980799023708734,-1.450661668798502,0.0024841718631606743,0.9921638688455089,0.04984146730545434,1.176957261527383,0.8445200408558675,0.3324372206715154,3.7652571431906736,-0.13095721990493644,0.0008716534461123193,0.32382434166397855,0.02952377763959618,0.40035050353953183,0.2572296953408784,0.14312080819865342,1.207190107367607,0.25881513470177575,0.002573381235465235,0.9396465219224952,0.05072850515701439,1.1337655103604583,0.807045823267537,0.3267196870929212,3.419080365980907,0.27215389858352673,225.25927384173283,-10.207863729508198,15.008639973086597,15.6953125,-61.4296875,77.125,1.8401990576416747,-1.2153492450076067,104.95086176304218,1.8792264344262295,10.244552784921467,26.8828125,-18.765625,45.6484375,0.28799217784880415,0.7828225631059803,1038.8235125098722,-2.3354252049180326,32.23078516744313,102.7578125,-62.4765625,165.234375,1.7027773353929323,0.6930575930743634,603.4070574071541,29.432321008067746,24.56434524686449,108.99031989834221,1.7684055815285276,107.22191431681368,1.8089729486683277,1.4742332266318587,508.0256492952938,25.185557718893154,22.539424333715665,103.81214312194076,1.767300781073004,102.04484234086776,2.0085000827089896,1.4367452239764589,573.959299881072,28.079613236301938,23.957447691293662,107.98655843093535,0.30338262248355624,107.6831758084518,2.115428816486415,1.532635006798747,0.0771976324408339,0.010654236888278037,0.05142691990721333,0.9800726705639166,0.26882790146216773,0.0741681412335205,-0.17554171284599013,-0.1019058724167664,-0.8451991766765624,0.9981812298701939,0.9778373223656026,0.9765794748763221
UMAFall_Subject_02_ADL_Jogging_2_2016-06-13_20-41-08.csv,A,MA,0.06594749117483859,-0.10931196369108606,0.2568024360765267,0.2938232421875,-0.7220458984375,1.015869140625,-1.0753144453845978,-0.07986163656086744,0.14510063865512118,-0.30408415247182374,0.38092077740013236,0.4178466796875,-1.1865234375,1.6043701171875,-0.6310316769516437,-0.5265661899343137,0.029739839750560906,-0.0955990650614754,0.1724524274997627,0.33685302734375,-0.82763671875,1.16448974609375,4.708480954120777,-1.2341330899146383,0.10068106390963563,0.5013636699869937,0.3173027953069995,1.288440226143269,0.1537096583350734,1.1347305678081956,-0.04476051490690658,1.0051663468112129,0.11594831733848189,0.39941590958415657,0.3405118461059496,1.2446118230534027,0.022745813723423682,1.221866009329979,-0.40730895565431746,0.9551096279202124,0.026959055045785153,0.297808444270872,0.16419212845256972,0.9934108806282461,0.045074741824971606,0.9483361388032745,4.9515681721898765,1.6913201423609563,24204.424318107234,13.873847336065573,155.577711508131,253.9921875,-256.0,509.9921875,-1.0473455866162809,0.07875573668922616,30686.083375190778,11.53547643442623,175.17443699121964,253.9921875,-256.0,509.9921875,-1.1554578404248432,-0.0728652172727,20413.45373028197,5.40484118852459,142.87565828468462,253.9921875,-256.0,509.9921875,-0.30397754863330784,-0.2678182806496515,12769.03578765536,248.72580502498815,113.00015835234639,442.2488341545234,31.921039437791848,410.32779471673155,-1.1334500080490386,-0.16977561957883974,11877.118004268206,196.8291344008249,108.9821912253016,362.03867196751236,20.290614712476216,341.74805725503614,-1.3902112812061742,-0.26175426023822773,10675.422323619485,183.32407908548538,103.32193534588619,360.6217288392855,4.824761166368756,355.7969676729167,-1.1010933267340963,0.265755552770994,0.24081441062042977,0.25799953075666154,0.5301655988745192,0.6914230702216908,0.9752082121609212,0.5510868249427701,-0.18452114388323707,-0.11211112742914198,0.6740245632909997,0.8441536686025362,0.920076683767193,0.6559977748621879
UMAFall_Subject_02_ADL_Jogging_3_2016-06-13_20-41-46.csv,A,MA,1.265228799783467,-0.4640472912397541,1.1248238972316809,1.161865234375,-2.903076171875,4.06494140625,-0.9857452642080422,-0.23168756668776658,2.993408776567281,-1.324338819159836,1.730147039001969,1.3125,-6.081787109375,7.394287109375,-0.357124104575798,-0.7231945630699572,0.5772642421266421,-0.2762231045081967,0.7597790745517029,1.420166015625,-2.778564453125,4.19873046875,2.3610407331157193,-1.2780433558526927,2.26640547172366,2.138430699304542,1.5054585586204823,6.974273263336413,0.756450175755531,6.217823087580882,1.1792931487637466,1.4352302383466344,2.496551374096846,1.6990248981236624,1.5800479024690506,6.686445607640112,0.1604005764244548,6.5260450312156575,0.5010857533375819,1.1799037468272346,0.6250555560024115,1.2202944670474172,0.7906045509623705,3.452067148419695,0.3197120994134927,3.1323550490062027,2.219491022736495,1.6801339059701654,18095.7364834478,14.072617827868852,134.52039430304907,253.9921875,-256.0,509.9921875,-0.5944179848670639,0.143777339722663,33023.578099585364,9.90484118852459,181.72390624126857,253.9921875,-256.0,509.9921875,-1.2852964388697676,-0.19221191848662328,24938.64502233286,11.113985655737705,157.9197423450686,253.9921875,-256.0,509.9921875,-0.9090242835393281,-0.23161253983671434,11184.021574565204,253.4365719043388,105.75453453429411,442.2488341545234,67.89126105498939,374.357573099534,-1.3467891480681862,-0.17003600009496317,9998.429308245259,217.71340948121528,99.992146232818,362.03867196751236,39.80241498665038,322.236256980862,-1.293836178775776,-0.18926478249177975,9113.082188859125,183.53956437934255,95.46246481659232,360.6217288392855,18.2569583534693,342.36477048581617,-1.0922852240408405,0.1392132968970952,0.3971417237536825,0.45140577568218365,0.5625200163993712,0.7557808440386802,0.9806226449996851,0.6407342185437159,-0.39657671425905894,-0.41869933625650624,0.7784088820315651,0.8704027811483755,0.940528534371777,0.7277058299576414
UMAFall_Subject_02_ADL_LyingDown_OnABed_1_2016-06-13_20-32-16.csv,A,MA,0.01962853966514921,-0.9526407210553278,0.1401018902982726,-0.59375,-1.33154296875,0.73779296875,1.4289105217448643,-0.3555719927686668,0.08056703929692668,-0.18029985271516394,0.28384333583321397,0.6552734375,-0.500732421875,1.156005859375,1.6353172650892907,1.543685137695383,0.027169895400115048,0.11860031378073771,0.16483293178280561,0.765625,-0.24072265625,1.00634765625,5.540659383214415,1.5895524424958751,0.0209338952620663,1.0289728926680681,0.1446855046715679,1.4294028285377927,0.6251369803046687,0.804265848233124,1.2767254401852517,0.1746497496707328,0.029303217314627553,0.3517413681311882,0.17118182530463785,0.8568700174510955,0.008586672556186023,0.8482833448949094,1.9348348877661268,0.6956544399980398,0.022248182088830747,0.9724907031198756,0.149158245125205,1.3531275161120695,0.5984619792981304,0.7546655368139391,0.9090839213975173,0.316433117647535,6189.418031586195,-8.135502049180328,78.67285447717144,228.8828125,-245.953125,474.8359375,3.7589790661669493,-0.45056218199377474,1117.382982164393,-0.11116803278688525,33.42727901227369,123.7265625,-55.8984375,179.625,2.9413903700918844,1.306187493686705,6962.110124298261,4.382172131147541,83.43926008959009,226.15625,-128.40625,354.5625,0.26609641723844835,0.7704235220223216,6673.3539710007035,86.92779774589677,81.69059903685799,316.25861080946527,3.0999877929447157,313.15862301652055,1.094955223399789,1.2427211531560214,3645.680804960668,66.18415705329262,60.37947337432373,227.2673348004177,0.9031466260386516,226.36418817437905,-0.30014865973417937,0.835725411210949,6373.268528760821,82.17378196859471,79.83275348352217,315.461117822641,2.5798881281765396,312.8812296944644,1.4742850575674682,1.3106613752580751,-0.16231886150217475,0.023628581793337416,0.5330579321237391,0.957071218956329,0.281500330584383,0.046310212957679675,0.08670082543013802,-0.2902232003108864,0.18658625893015066,0.9974025705695687,0.9234264847797473,0.914550872339866
UMAFall_Subject_02_ADL_LyingDown_OnABed_2_2016-06-13_20-32-56.csv,A,MA,0.010340659084215841,-0.9393850858094263,0.1016890312876263,-0.63720703125,-1.204833984375,0.567626953125,2.6251299207439622,0.035953808672977663,0.007692780032183954,-0.28882636398565575,0.08770849464096368,-0.156982421875,-0.567626953125,0.41064453125,1.2750402560132592,-1.1137599628987793,0.004619520120933408,0.12731333247950818,0.06796705173047753,0.270263671875,-0.14599609375,0.416259765625,4.517221694495551,-1.475772484175681,0.009672889147206867,0.9974171517761549,0.09835084721143417,1.31150321348366,0.7715797848192602,0.5399234286643998,2.3112386485321794,0.6633102708902213,0.00744813449322229,0.32313120926251204,0.08630257524096421,0.6027122013861488,0.16234341927018314,0.44036878211596564,1.6847206374226689,1.0311958593595847,0.010270728896665153,0.950402860971146,0.10134460467467005,1.2048983200195769,0.6401002642205028,0.564798055799074,2.7625772875573738,-0.041041350467529374,492.84098190557756,-5.117571721311475,22.200022114979472,30.6640625,-94.0859375,124.75,4.961139046669635,-1.6691139150360925,450.06962423689384,-0.29764344262295084,21.214844431126377,54.9765625,-60.0546875,115.03125,1.103499118022632,-0.18671879819526463,6419.475862430093,-16.93545081967213,80.12163167603424,163.734375,-201.5,365.234375,0.6554751729334849,-0.3492795854037911,3822.8011126111073,61.60070610737106,61.82880487775182,208.90440306892057,2.8778539672872996,206.02654910163326,-0.0854971579796846,1.1011091875830024,3770.770574465372,57.74836283013976,61.40660041449431,208.86520156387087,2.2846320178600426,206.58056954601082,-0.0421238513509441,1.115901699532625,3633.4028842747894,59.48243696234486,60.27771465703382,201.54063410951557,2.8381211462206823,198.70251296329488,-0.03819398785318384,1.1247130800204932,-0.051218389378357876,-0.23257255879881517,0.00907807118878065,0.9510801250614759,0.2414973952028989,-0.04766477331634762,0.11594026656361774,-0.19551441709767978,-0.8061651384424842,0.9991985698524979,0.9959032828284081,0.9947208910828099
UMAFall_Subject_02_ADL_LyingDown_OnABed_3_2016-06-13_20-33-39.csv,A,MA,0.0051905401091758025,-0.9344702548668032,0.07204540310926022,-0.78662109375,-1.153076171875,0.366455078125,1.6334495792832762,-0.6503745464751196,0.007440870446585567,-0.2694512038934426,0.08626048021304754,-0.09716796875,-0.5126953125,0.41552734375,0.9795104906955823,-1.0741192776398956,0.0055444837267932985,0.10806624615778689,0.07446129012307871,0.254638671875,-0.08642578125,0.341064453125,0.33878694104738694,-0.30494575802490065,0.0061053407409118144,0.9845758465876664,0.07813667986875188,1.2500483741936748,0.8089358209750094,0.4411125532186654,3.1323395596274777,0.9874923732251094,0.0068581925856178024,0.3005145273594798,0.0828142052163625,0.5128182981210961,0.09837776672660598,0.41444053139449016,1.008490238136634,0.7712039732740367,0.005523752151515765,0.9434186831892641,0.07432194932532223,1.1711710786641805,0.79187033359083,0.37930074507335043,1.853614952521979,0.7895804930293575,1836.4174896073475,3.6563780737704916,42.85344198086482,116.3046875,-119.390625,235.6953125,1.2099564752604266,0.042710285036837846,712.6082675287631,-6.845671106557377,26.694723589667735,58.8984375,-66.8828125,125.78125,0.04406799643009718,-0.3383583659943487,3681.407318315349,-5.428790983606557,60.674601921358736,201.7578125,-146.15625,347.9140625,2.394558376323923,0.34513025784372575,2811.5472282765927,58.75834088251624,53.02402501014604,214.3603773996626,7.189253352715514,207.17112404694709,0.4697560498775335,1.1480735181481032,2025.2245239901022,49.053984608170126,45.00249464185405,206.71189830032952,7.1299025416836,199.58199575864592,2.183222638622903,1.5629861198857586,2698.0819081233276,53.06937420511074,51.94306410025623,209.58715944633906,5.3031915232274285,204.28396792311162,0.6895141920431271,1.2475354309585878,0.1010162466258128,-0.30024942593849924,0.04575630773554554,0.9369026179546562,0.5268034693141891,0.22169542373109943,-0.4965810790706567,-0.41033677033515636,-0.020590178576085912,0.9904680152161932,0.9604568708731049,0.9442282318966562
UMAFall_Subject_02_ADL_MakingACall_1_2017-04-26_19-40-37.csv,A,MA,0.0637624176799274,-0.8404521004098361,0.25251221293222115,-0.193603515625,-1.641845703125,1.4482421875,1.8088759405828743,0.18667667565596854,0.10870503565001359,0.3115874743852459,0.3297044671368794,1.296875,-0.85595703125,2.15283203125,2.855958265852707,-0.005952568073228147,0.0844735699273198,0.23460313140368852,0.29064337241251487,1.07177734375,-0.892822265625,1.964599609375,5.148871734373005,-1.02209883345802,0.05285833352642295,1.0291852060770674,0.22990940286648337,2.139398613347252,0.6080272148215268,1.5313713985257253,9.55753982335791,2.5387382691316684,0.09293942360197369,0.5007207806305504,0.30485967854403717,1.3716300936922168,0.19559382205443146,1.1760362716377852,0.6340494492200408,1.225152176254964,0.06479689584079498,0.9184060105153872,0.254552344009626,1.9607049720561815,0.2780551651278547,1.6826498069283269,5.0237954152216755,0.5446568484064677,13065.0533550992,-10.438396516393443,114.30246434394667,253.9921875,-256.0,509.9921875,1.0547142291539222,-0.022651302723422494,2505.147734528422,-3.0947745901639343,50.05145087336052,195.4765625,-201.78125,397.2578125,7.362983984138124,-0.055411626056266566,1323.3825735957246,9.68391393442623,36.37832560187075,147.8828125,-86.2890625,234.171875,5.787098642788619,1.6957392478823003,8993.947511397584,89.34455697195757,94.8364250243417,326.97035367540155,2.482298168878741,324.4880555065228,-0.009949108189434064,1.1530625951190867,2456.961600230356,38.11088812702741,49.567747580764205,242.17915156982056,1.9571209123671947,240.22203065745336,5.854952319941537,2.315802946538828,7737.715631465468,82.12448116462208,87.96428611354422,293.9070559614813,1.3460191596426108,292.5610368018387,-0.035618581019892126,1.143565495410694,0.55099924804061,-0.33125421614796535,-0.32427572401004584,0.7289869353780934,0.6265256946852951,0.03241120518575835,0.5562777094070918,0.04665090330101546,-0.07329013989568871,0.9881952911163732,0.8149159634008977,0.7325331020088266
UMAFall_Subject_02_ADL_MakingACall_2_2017-04-26_19-41-16.csv,A,MA,0.0936368168051777,-0.8063084336577869,0.3060013346460726,0.026611328125,-1.571044921875,1.59765625,0.4868891526845309,0.14414064686056613,0.09164533126549641,0.4581759093237705,0.30272979910391445,1.2421875,-0.066162109375,1.308349609375,-0.2247515023219151,0.5743746020813214,0.07972075548328336,0.30501969134221313,0.2823486417238152,1.04638671875,-0.173583984375,1.219970703125,-0.2755774739852903,0.6245236405272189,0.07220892010833545,1.0689849823635469,0.2687171749411181,2.116091919823341,0.688621170332434,1.4274707494909071,6.1749456975563515,2.0008901981950187,0.10131552154732787,0.6098068311123446,0.31830099206148865,1.417625785104238,0.06513935409773809,1.3524864310065,0.03772392242827349,0.4738254886534214,0.09427848482140558,0.9060645734593984,0.3070480171266468,1.713130242563414,0.05560888935765613,1.657521353205758,1.277790360935069,-0.15979339565781037,9912.696182301006,10.815957991803279,99.56252398518735,253.9921875,-256.0,509.9921875,0.6741164531855985,-0.07893504645702444,2547.1976510803556,-0.17635758196721313,50.469769675325004,102.359375,-123.9765625,226.3359375,0.10406716835536667,-0.30975085304083094,1956.2449155380164,10.966060450819672,44.22945755419137,137.3359375,-72.015625,209.3515625,1.1110274216442662,0.8025875854889876,3728.5515515413385,103.6805255627509,61.06186659070732,272.6481253266573,5.740874637332059,266.9072506893252,0.46101203904972277,0.8148221435359105,1583.5018831407026,54.702453210330596,39.793239163716024,168.3119328457767,4.470613957853692,163.84131888792302,0.5647170117860907,1.1282339547329125,3524.9170056852327,91.89383135469991,59.37101149285931,256.0747647782772,1.5567472222755048,254.5180175560017,1.0982765166415014,1.0684685587755103,0.12930240925988887,-0.0519958551439347,0.13485257324382646,0.8068058817893164,0.5567746442292877,0.10324852539743631,0.4343166443691993,0.24807251681530743,0.4733160083130923,0.966103184205301,0.4815550036605503,0.29340238096218435
UMAFall_Subject_02_ADL_MakingACall_3_2017-04-26_19-41-56.csv,A,MA,0.11473780043138183,-0.8342645363729508,0.3387296863745217,0.257568359375,-1.6259765625,1.883544921875,2.604573703172421,1.40937370546539,0.06847728272604812,0.2409027599897541,0.26168164384619746,1.002685546875,-0.626220703125,1.62890625,3.155504608473139,0.6124199309467748,0.09204135559947116,0.3065885950307377,0.3033831827894736,1.48388671875,-0.241455078125,1.725341796875,3.7356483333526977,1.643444184058649,0.07005053769432805,1.024631588875138,0.26467062113942313,1.8697826913035547,0.3212067750876577,1.548575916215897,3.0707555046710286,0.5578144697087337,0.10274279177837722,0.4570113870522066,0.3205351646518323,1.4934732380254976,0.06545200252048558,1.428021235505012,1.2027288733767643,1.3915095591810382,0.07859659223607912,0.9571181189082348,0.28035083776596625,1.862134472610032,0.28290758167974417,1.5792268909302878,2.74050447764803,0.09495894318555327,8524.123584551367,1.9656762295081966,92.32618038536722,213.1796875,-256.0,469.1796875,2.0244447192541726,-0.355919625400151,1874.1806510883603,5.441470286885246,43.29180812911792,210.9140625,-75.4375,286.3515625,8.96597798358667,2.226472163394273,3434.6429354975135,10.845671106557377,58.60582680499878,234.25,-89.6015625,323.8515625,5.782770658147049,1.9868119039385723,8123.850013112689,75.93818186531429,90.13240268134811,329.27184281709845,2.365240019863206,326.9066027972352,0.9562232022052131,1.4215927436343117,3396.5931854399337,45.03465934608098,58.28029843300336,250.94694122377805,1.6352217572282055,249.31171946654985,3.9863080642692905,2.00480966593641,7122.6041006941905,69.84535441250617,84.39552180473909,314.71460013957983,2.3065934915273325,312.4080066480525,1.1583183225849236,1.489337140265105,0.36713544080924326,0.08640500989173694,-0.07390886542158835,0.908228871495647,0.5718724226230057,0.296248253172796,0.6912414819497033,-0.012260157398611861,0.07483336352771001,0.9902741999138491,0.9198354306610224,0.895296221624488
UMAFall_Subject_02_ADL_OpeningDoor_1_2017-04-26_19-45-05.csv,A,MA,0.0007281889029539349,-0.9311203253073771,0.026984975504045484,-0.90625,-0.968505859375,0.062255859375,-1.7426091462154152,-0.5023088781494952,0.0016551882842850815,0.1542208311987705,0.04068400526355636,0.2109375,0.103759765625,0.107177734375,-1.9538620247367438,0.0989735945758334,0.00026669538086229337,0.2366122886782787,0.01633081078398416,0.3134765625,0.2197265625,0.09375,8.917661879669451,2.7141350641241,0.0006506104818446516,0.974023194872174,0.025507067292118307,1.0273711922465123,0.9409886933903135,0.08638249885619875,-1.3768792385264577,0.4102629555382587,0.0007173418421365242,0.28452457743569554,0.026783238081615975,0.34276517765711373,0.24979929019683586,0.09296588746027787,-1.1542352970513372,0.31535308384651406,0.0007025100480629432,0.9608631622502675,0.02650490611307543,1.0074339458782247,0.9326795946581315,0.07475435122009311,-1.6671491462714079,0.4713164542602138,7.099226888020834,-2.828125,2.664437443067642,2.5546875,-8.8515625,11.40625,-0.404135596217428,0.142453671946747,2.890476214299436,0.2104252049180328,1.7001400572598235,2.859375,-4.53125,7.390625,0.6463876994699307,-0.6935351901437257,7.773791704021517,-0.8290215163934426,2.7881520231188106,6.28125,-6.90625,13.1875,0.19418496346121206,-0.07059892180173262,2.9810362077182955,4.82389569423862,1.7265677535846358,8.87638220970754,1.9953253474527657,6.881056862254774,-0.5414050875339527,0.46500870946275363,3.0992971833581233,2.8587602667560277,1.760482088337772,7.274041663951771,0.13002591388354093,7.14401575006823,-0.046408385194854684,0.7289462382685489,3.8837472590490614,4.415278817265802,1.9707225220839846,8.858541351871226,0.2735490843751812,8.584992267496045,-0.15952093781073007,0.07430880671948074,0.22897618190126398,0.0017553464820623094,0.04056626685420346,0.9681982200884803,0.11271667660136833,-0.10284992557379566,0.18198040065196008,-0.43130179178787126,0.33390905267227183,0.948708798124166,0.4572613796170633,0.3411965696123747
UMAFall_Subject_02_ADL_OpeningDoor_2_2017-04-26_19-45-44.csv,A,MA,0.00014682272092892172,-0.9575395427766393,0.012117042581790399,-0.906494140625,-0.967529296875,0.06103515625,13.438585746046597,3.663541179664174,0.0006539833675968192,0.18176869877049182,0.025573098513805854,0.218505859375,0.15625,0.062255859375,-1.6654040070363172,0.5481683894667738,0.00022304722520171622,0.24006227587090165,0.014934765656069606,0.315673828125,0.224853515625,0.0908203125,20.806979722474587,4.370982464616605,0.00017843481015498115,1.0041828973417999,0.013357949324465232,1.0320856003523995,0.9511227761507199,0.08096282420167955,7.392489170070187,-2.040582722420212,0.0005095437951582542,0.30171380242365964,0.022573076776510867,0.38212281984375523,0.27395167372892504,0.1081711461148302,3.0963884129290475,1.5601997531663938,0.0001496880319750578,0.9872833659349233,0.01223470604367174,1.0093724796984125,0.9377907937781486,0.07158168592026393,10.99610870056939,-3.000574179571519,4.932504289137211,-2.52984118852459,2.2209241970713927,2.8828125,-8.9375,11.8203125,0.9954734076525611,-0.38474619690551587,2.057892912984546,0.06685450819672131,1.4345357830965897,2.9375,-2.890625,5.828125,-0.029366159918884804,0.1660582598589136,2.3433662789766907,-1.2908555327868851,1.5308057613481505,2.3203125,-4.453125,6.7734375,-0.4907081136926874,0.301382604068289,2.3279982810345357,3.8680473835224722,1.525777926513074,9.285957350012437,1.5463225023422507,7.739634847670186,3.6955028081465136,1.5390696451886219,1.0493488637870905,2.2288424148702584,1.0243773053846372,5.035888050486354,0.35329434545609417,4.68259370503026,-0.26314557312469544,0.056523689711867484,2.4745230702845906,3.576176915197684,1.573061686738505,8.947451299986215,0.7985582711987899,8.148893028787425,2.7390271596046256,1.2005218471922932,0.00650995757593833,0.05633050127214757,0.32044962099967095,0.9339002126330979,0.5028258941075455,0.2129011733441269,0.3509299622489778,-0.31098654672049825,0.15259597725960733,0.9551830715332811,0.32976490483156334,0.2031598901738174
UMAFall_Subject_02_ADL_OpeningDoor_3_2017-04-26_19-46-20.csv,A,MA,0.000665573963050634,-0.9303478803790983,0.025798720182416683,-0.906494140625,-0.96826171875,0.061767578125,-1.666761328733033,-0.5608011774644487,0.001184845882686761,0.17075835681352458,0.03442159035673339,0.208251953125,0.11669921875,0.091552734375,-1.3358340347942554,-0.795986080539692,0.0002638450737207964,0.23523949795081966,0.01624330858294567,0.312744140625,0.219482421875,0.09326171875,10.064792433399392,3.0349376238934433,0.0005881647752439232,0.9754713211841508,0.02425210867623521,1.022650816737605,0.9437588937605592,0.07889192297704573,-1.366553033322492,0.4962066252261267,0.000584326648862233,0.2921407746595344,0.024172849415454375,0.3483900405653738,0.25076760228178696,0.09762243828358685,-0.29291045259485404,0.008815862081968303,0.0006167531647106813,0.9597876536630704,0.024834515592430655,1.0030100937865032,0.9341459995187587,0.06886409426774454,-1.647251702793857,0.5070594041443514,4.091300222261356,-3.299564549180328,2.022696275336798,0.765625,-8.7890625,9.5546875,0.14773362197763173,-0.4185888525938,3.092312171810962,-0.010886270491803279,1.7584971344335372,4.0859375,-4.65625,8.7421875,0.4201818411616145,-0.2877704283480041,3.537185518858862,-1.4058657786885247,1.8807406835762506,4.9296875,-4.4296875,9.359375,2.1001000759428745,1.0650365207545514,3.6479928616788015,4.452028834165572,1.9099719531131345,9.665514997959564,1.5484327699221396,8.117082228037424,0.47592194030533586,0.838574036346423,1.6214311568677227,2.627269339257209,1.2733542935364544,5.353176079732947,0.4533943165170909,4.899781763215856,-0.5175585743474138,0.17593982580044384,3.461957037002756,4.118471774428557,1.8606335042137545,9.230481148161372,0.8287144128860074,8.401766735275364,0.02818001388515068,0.5154874018095336,0.15768504230410546,0.13277254965602975,0.06337435646558057,0.9739536243061248,0.09510152771120747,-0.09362869670823046,0.2613478344440356,-0.10900729498673677,0.20209063535170627,0.9750735894974883,0.6991963522428956,0.6436423165260905
UMAFall_Subject_02_ADL_Sitting_GettingUpOnAChair_1_2016-06-13_20-34-55.csv,A,MA,0.0018170226141403282,-0.9445920850409836,0.042626548231593044,-0.85888671875,-1.021728515625,0.162841796875,-0.7434453086887309,-0.5251503386282965,0.001957541932173765,-0.2538542200307377,0.04424411748666443,-0.1708984375,-0.338134765625,0.167236328125,-0.3005679804591117,0.06605083543219405,0.0019719262266419627,0.07665215163934426,0.044406375968344486,0.215576171875,-0.003173828125,0.21875,1.364135791428132,0.6663435658922006,0.0018812117220154314,0.983043050085308,0.043372937668728774,1.0801555474730273,0.8910745189022335,0.18908102857079379,-0.5110799269738928,0.5787056070600481,0.002398429629641999,0.26799898678026274,0.048973764707667705,0.3933929792670774,0.17089861188607175,0.22249436738100564,0.3471603535479728,0.21047614311114568,0.0018268267400481813,0.9487147704329633,0.042741393754160396,1.0329985677500542,0.8699316646879838,0.1630669030620704,-0.7644194623098755,0.571289748281016,182.7225526903497,-5.670978483606557,13.517490621056472,46.609375,-36.7421875,83.3515625,3.4741054045443516,0.7212720106338747,216.57899113222547,0.8306864754098361,14.71662295270982,36.5390625,-39.8359375,76.375,0.72325700928381,0.28512881970636483,1097.88192232059,-1.4642674180327868,33.13430129519242,58.421875,-75.8359375,134.2578125,-0.35548738427328175,-0.39397404612898557,493.22063315136813,31.9765311118489,22.208571164110673,82.749780936974,3.2247933254997134,79.52498761147429,-0.6626001942051105,0.6785505112489939,474.9903525802268,28.784420568967665,21.794273389590824,82.48037541804452,1.2662276728658437,81.21414774517868,-0.35573284486540135,0.7299260699632868,431.65351159323205,29.4845351081251,20.776272803205874,76.25755357693467,2.9525255674697384,73.30502800946493,-0.7357807830933778,0.6386398922734952,0.025297895325861786,0.019591162254850882,-0.3620789021958159,0.9644253469350839,0.33844117459648143,0.08829811238203313,-0.19511663604011364,-0.15673430695155768,-0.8708397320204462,0.9912993503741675,0.9849486877122944,0.9717591374791086
UMAFall_Subject_02_ADL_Sitting_GettingUpOnAChair_2_2016-06-13_20-35-34.csv,A,MA,0.006049933980722897,-0.9700027215676229,0.07778132154137585,-0.802001953125,-1.204345703125,0.40234375,1.0093827818723966,-0.7462766988042653,0.0019205418115105135,-0.22004274462090165,0.043823986714019,-0.157958984375,-0.3134765625,0.155517578125,-1.5712981942827673,-0.0017214378295792756,0.0011912749113280917,0.12331102715163934,0.03451485059113094,0.15625,0.0341796875,0.1220703125,1.165514846296415,-1.5929243781030051,0.005972284132597877,1.0038261198832303,0.0772805546861426,1.2304835485143717,0.8333613192309506,0.3971222292834211,0.8119966560168774,0.6029038884324012,0.0015577674287589561,0.2552508412398196,0.03946856253727714,0.3196463752912215,0.18083092484283933,0.13881545044838214,-1.4574953619246263,-0.06749516259176279,0.005662183540748118,0.978603100830768,0.0752474819561965,1.2049711356128898,0.8140274508906489,0.39094368472224095,1.0047907156092988,0.7083647765568576,76.0315471044655,-2.6768698770491803,8.719607049888516,18.59375,-27.9296875,46.5234375,0.7719819476153478,0.08970849116784649,779.4744492160818,4.065573770491803,27.919069633784034,85.828125,-58.90625,144.734375,1.8176025592753424,0.8518659233421302,2687.97616964038,-6.482325819672131,51.8456957677335,101.1640625,-163.8359375,265.0,1.9806925436234524,-0.9323827852878686,1788.8530281575286,42.32705749473512,42.29483453280706,184.97884532500856,2.1424205516920574,182.8364247733165,3.13242287340736,1.7883859776654443,1845.6949285882786,40.665943607975294,42.96155174790918,184.9558905726431,1.1675963557668378,183.78829421687627,2.9555822576508977,1.7434505705867205,1384.3634748608924,37.49951071061575,37.2070352871724,163.86185088896627,1.2814643494480251,162.58038653951826,3.3213698819023802,1.8038784835100998,0.33953328457518367,0.6439262574207159,0.05507740518893027,0.993140730633125,0.2342559138343716,0.12422016464602091,-0.1253896961068466,0.02941201792639973,-0.9719187068271603,0.9961774817018587,0.998381813921086,0.994221115471019
UMAFall_Subject_02_ADL_Sitting_GettingUpOnAChair_3_2016-06-13_20-36-13.csv,A,MA,0.0006093921231441811,-0.9306920786372951,0.024685868895872008,-0.90673828125,-1.01318359375,0.1064453125,4.235092416157071,-2.118956744310238,0.0006156712933316258,-0.25459464651639346,0.024812724423803723,-0.1787109375,-0.319580078125,0.140869140625,0.2479703813365477,0.4295797278632322,0.0008007973595395115,0.12715324026639344,0.028298363195413113,0.15625,0.05078125,0.10546875,0.2892398166713126,-1.0478093179896477,0.0005783217366839606,0.9739599245730827,0.024048320870363498,1.0561572254225051,0.9410391443970525,0.11511808102545262,2.898442659309839,1.6700175969045103,0.0006736564664578626,0.28586188182845607,0.025954892919406596,0.32358949563597333,0.2047152260209314,0.11887426961504194,0.22148345866750985,-0.8298524226563885,0.0005764415698803058,0.9397743195377735,0.02400919761008905,1.0195555702319592,0.9116982752732732,0.10785729495868601,4.1406534583405366,2.0676145956077914,185.8824556611275,-0.3009733606557377,13.63387163138657,52.9609375,-22.3671875,75.328125,6.517325283917705,2.4099572011022667,15.995112885021772,-1.2082479508196722,3.9993890639723677,6.03125,-14.8125,20.84375,2.4243225112569826,-1.2876579092000697,115.55242803187971,0.0785092213114754,10.749531526158696,22.5703125,-29.6796875,52.25,0.04962932025010769,0.24223255574378644,131.4010067580266,13.584400834100041,11.463027818077848,57.33707120080968,1.4797006995187405,55.857370501290944,4.844263170593294,2.147123704211362,39.43886724827318,9.5950363324094,6.280037201185451,29.80898867227908,1.013489341103916,28.795499331175165,1.118429546394493,1.1322091853466725,129.00752064517542,13.026796752338456,11.358147764718305,56.11201065064245,1.3223218807272306,54.78968876991522,4.415632186130046,2.036693117694877,-0.027880496100801722,0.25585025801758876,-0.06466740886704876,0.9646064120651713,0.18136987615046413,-0.05458323838485826,-0.7592648615151252,0.10677503210523052,-0.34946208326624867,0.9980347264615457,0.7851028591654341,0.7918537728903813
UMAFall_Subject_02_ADL_Walking_1_2016-06-13_20-27-49.csv,A,MA,0.14940628295387726,-1.1379274462090163,0.3865310892462303,-0.374267578125,-1.9814453125,1.607177734375,-0.7487348143573884,-0.036313223141287904,0.035053222133813663,-0.3128441982581967,0.18722505744107454,0.08056640625,-0.76708984375,0.84765625,-0.4292292869623302,-0.21750648455247112,0.04200503523232508,0.07858126280737705,0.20495129966000478,0.6083984375,-0.326171875,0.9345703125,-0.27615110253962394,-0.06826231967953181,0.1403294626225036,1.2180510692608273,0.37460574291180265,2.0958055113910614,0.3790530677370362,1.7167524436540251,-0.5432614895971954,0.0599752583739895,0.03151535029320804,0.3858015154028871,0.1775256327779401,0.7854739632859399,0.06004171987297812,0.7254322434129618,-0.5487254892140472,0.1786960417019257,0.14062300230405875,1.1623293888739066,0.37499733639595195,1.9815232819492024,0.3744587170672606,1.6070645648819417,-0.7753736381198588,0.09096445318161137,11920.915842491939,-10.64267418032787,109.18294666518183,203.453125,-230.390625,433.84375,-0.5036684207797131,-0.3772492367426756,15510.939585367838,-18.3125,124.54292266270227,183.9453125,-256.0,439.9453125,-0.7815186877795663,-0.3678713187572761,25889.694786497024,22.245517418032787,160.90274946841967,253.9921875,-256.65625,510.6484375,-0.8867004809788352,-0.4215712116025774,9221.461929481819,210.52461431638923,96.0284433357212,396.16843523575733,42.47030859101928,353.69812664473807,-1.1081951375108487,0.05261004612087489,11536.920471234642,173.79400312363492,107.41005758882471,360.6217288392855,8.78132298123587,351.8404058580496,-1.3748312860648417,0.05352030256242284,6358.53409557309,177.60799047423873,79.74041695133711,344.124433855782,30.87368734557795,313.25074651020407,-0.8535695140898478,0.0365129536957338,0.1258085024555562,0.19236297954939457,-0.3500499050024317,0.9912535370068504,0.3225449245026667,0.21192042523906574,-0.12298437755846363,0.0886455558940272,-0.838719734358274,0.9483556891386536,0.9024537801390493,0.7911941603168158
UMAFall_Subject_02_ADL_Walking_2_2016-06-13_20-28-31.csv,A,MA,0.03976543373097487,-0.8051077420594263,0.1994127220890755,-0.477783203125,-1.47216796875,0.994384765625,0.6331829489224052,-0.7000242157378012,0.018485936473627555,-0.5947585809426229,0.1359629967072937,-0.282958984375,-0.948486328125,0.66552734375,0.25933507629860664,-0.6577730987398972,0.02570049296962759,0.17584128457991804,0.16031373294146573,0.572021484375,-0.2001953125,0.772216796875,0.49117470384194384,0.05461447209076246,0.029274028332360362,1.0424192439634201,0.171096546816002,1.5998333970889953,0.7765566804541162,0.8232767166348791,1.3236238441887656,0.9501041245509115,0.018851506151664345,0.6399824401089858,0.1373007871487427,0.9630746104669566,0.29180116050259364,0.671273449964363,0.0036375512360051765,0.2193619529074275,0.036892204740230014,0.840966071833837,0.19207343580055525,1.4757857323129657,0.4924137261630464,0.9833720061499194,0.5219605144692849,0.606129184783049,3348.2776479252057,-4.49359631147541,57.86430374527292,84.328125,-173.109375,257.4375,0.3816148374411603,-0.7743256745402819,3344.50322882647,-10.49718237704918,57.83168014874261,151.0078125,-124.6015625,275.609375,0.6759236750680921,0.8376514105483275,5838.079749535731,-6.257940573770492,76.40732785234496,153.3359375,-124.828125,278.1640625,-0.5178748424676689,0.46204044170497727,2202.944392483796,101.62751201078619,46.935534432706696,185.85264098903102,19.65690206589342,166.19573892313758,-1.0112305795870422,-0.03792725727444208,2048.848669670311,84.65305961804836,45.26420958848515,185.43075066842886,15.919298736616039,169.51145193181281,-0.8645989040502999,0.2811099031580421,1926.0467653932703,84.85660477730308,43.88674931449435,173.7695535099598,9.707228525409878,164.06232498454992,-0.9397192353204713,0.0929186925388525,-0.060842185625617516,0.36193600442722357,-0.1473677130625839,0.8701183102300074,0.3833618272232272,-0.05774216860112425,-0.4468258263967746,-0.24493796865473647,-0.25740674801399804,0.9011063710283554,0.8623411373720875,0.7243346966021139
UMAFall_Subject_02_ADL_Walking_3_2016-06-13_20-29-14.csv,A,MA,0.08400596162009108,-0.9575835681352459,0.28983781951307025,-0.366943359375,-1.890380859375,1.5234375,0.8984911694289552,-0.9024481113335072,0.058101813975579106,-0.2949258773053279,0.24104317865390654,0.261962890625,-0.81005859375,1.072021484375,-0.2694918490304459,-0.1996886589530543,0.030441296035474772,0.14698066086065573,0.17447434205485565,0.49267578125,-0.303955078125,0.796630859375,-0.2486864681280303,0.013311612375593973,0.07067683475136279,1.0610151167366106,0.26585115149527333,1.9261791909117,0.6286885139327458,1.2974906769789543,1.0129450871044874,1.015156811082036,0.03389153713842493,0.4029146723809396,0.1840965429833622,0.8118534817094168,0.019871607172973274,0.7919818745364435,-0.2093131768107237,0.12944523564717067,0.07928171162363905,0.9864880467093416,0.2815700829698337,1.926178943355714,0.40719099369731343,1.5189879496584004,1.2037577590514834,0.9699570096991919,11145.80625106728,11.598104508196721,105.57370056537414,249.4453125,-203.8984375,453.34375,-0.5130221916865376,-0.046652135581078884,2433.571958147893,-1.3130122950819672,49.33124727946672,125.53125,-123.921875,249.453125,-0.1006182264580362,0.3049506906476525,10954.400337661158,18.241931352459016,104.66327119702096,253.9921875,-219.1796875,473.171875,0.44872104240273325,0.027501834583734713,5265.557972764816,139.36052595559966,72.56416452192374,304.3237677662417,20.06012842534679,284.2636393408949,-0.7633240807956776,0.44848897632990414,4247.516059136271,96.5665819658341,65.17297031082956,282.61044286181425,7.160086989913251,275.450355871901,0.608199197406817,1.1174974788470864,6069.345165587015,127.4179912879479,77.90600211528644,277.9502195068854,5.213115642975057,272.7371038639103,-1.017682655007067,0.3308320612648248,-0.1483192995778473,0.15687371896123292,0.3824506601481857,0.9549537119501934,0.09913911021357628,-0.1494689175302583,0.035418780415027905,-0.35274468724355773,-0.4754111310841177,0.9763201113953158,0.8038826107935054,0.7464579664725113
UMAFall_Subject_02_Fall_backwardFall_1_2016-06-13_20-51-32.csv,F,MA,0.0009377332984424027,-0.06311235271516394,0.030622431295414847,0.017578125,-0.134521484375,0.152099609375,0.4926560212636302,0.7731078077869826,0.0011080047146218722,-0.06509749615778689,0.033286704772654684,0.003662109375,-0.151611328125,0.1552734375,0.6534117991537953,-1.2223931995330548,0.00048790450304583773,1.0555640048668034,0.022088560456621834,1.128662109375,1.031494140625,0.09716796875,0.6936926630631306,1.2634802649465913,0.00048615491818484877,1.0604009353396329,0.02204892102087648,1.1315306942274754,1.0368270633462757,0.09470363088119971,0.535266950665318,1.2175013702487274,0.0004968757004980109,1.058080369797457,0.022290708837944363,1.131464847163611,1.0340667461217012,0.09739810104190982,0.7085892976426598,1.267780155989183,0.0004790340425942068,1.0578892300709812,0.021886846337337108,1.1287281199433117,1.031500641390388,0.09722747855292369,0.5214076252303714,1.2057745784611733,5.358713852512381,-3.4715676229508197,2.314889598342085,2.3984375,-9.3515625,11.75,0.8097287302227705,-0.13029859058027113,4.887170043278261,0.20158811475409835,2.2106944708118896,8.671875,-4.3984375,13.0703125,2.8610087240815565,0.7527717570224393,1.5285286324923153,-1.7205430327868851,1.2363367795598073,0.734375,-2.9453125,3.6796875,-0.877463943547601,0.8977076254960891,3.7386725221936596,4.791314477235712,1.9335647189048677,10.195722573170697,1.472506001950841,8.723216571219856,0.8385272625157181,0.9201445079230623,1.734964699531957,2.757699535491033,1.3171805872893652,9.060465827738936,0.34807295953039785,8.712392868208537,8.544522950866751,1.7421120987232106,3.2880174928857855,4.307234773275704,1.8132891365928892,9.6942327914107,1.4615013951840758,8.232731396226624,1.0312913191078357,1.061902826809182,-0.23082274603370717,0.1571957018855375,0.013761075216890458,0.9924770943862143,0.9974382724341158,0.9881330351400897,0.19281684442886055,0.09343991157920276,-0.3691669042266805,0.8898645205657423,0.5964115435061197,0.24475415382647872
UMAFall_Subject_02_Fall_backwardFall_2_2016-06-13_20-52-16.csv,F,MA,0.0002824237437847533,-0.006455718493852459,0.0168054676752762,0.0908203125,-0.023681640625,0.114501953125,23.853017275692828,4.670924439497823,0.001030334911711229,-0.6783907530737705,0.03209883037917782,-0.594482421875,-0.711669921875,0.1171875,0.1609923917187115,1.290700076989499,0.0007650639190048468,0.8707535540471312,0.027659788845991698,0.90380859375,0.791748046875,0.112060546875,1.611593348198368,-1.7214472426586958,0.0007014280234046689,1.1044551927303232,0.02648448646669723,1.1294979142148236,1.0190523564811507,0.11044555773367293,0.8066315100888715,-1.1901809945592736,0.0007090804054876577,1.1043071473408843,0.02662856371432109,1.1294972545781232,1.0189249567152356,0.11057229786288758,0.7891120318694731,-1.188221685323119,0.0007566583116110661,0.8709417258599332,0.027507422845680512,0.9038910253721358,0.7920805744187978,0.11181045095333808,1.6384805028265381,-1.7302358641045075,20.203284858745302,-2.4488985655737703,4.494806431732662,15.46875,-12.4453125,27.9140625,5.060727928379816,1.4459957105442438,2.262183317590932,-0.44300717213114754,1.5040556231705435,2.4296875,-6.75,9.1796875,8.09776693448382,-2.2909881783246724,1.5913827698087433,-1.9341700819672132,1.2615002060280225,2.5,-6.03125,8.53125,3.110444213702273,0.7886717814133957,8.937923270018072,4.980506987019869,2.9896359761713587,17.76248460590466,1.2169708568434374,16.54551374906122,5.84674753504582,2.258776873770551,1.5609516712066334,2.488433208635772,1.2493805149779764,8.730614686979377,0.7211661156808811,8.009448571298496,11.891773130166523,2.6435692427013233,8.273658254206493,4.799736615004113,2.8763967484000696,16.60295766196493,1.0666280103672507,15.53632965159768,4.982916290190872,2.0957717877979904,0.16649556798342008,-0.07526650698160486,0.15365777724079682,0.6974905754221811,0.999805604491626,0.6978842540217306,-0.6333373312233344,-0.042953114944393335,0.03573278323188476,0.9924309712705547,0.6491759537412563,0.590858215038598
UMAFall_Subject_02_Fall_backwardFall_3_2016-06-13_20-52-55.csv,F,MA,0.0004954212024563648,-0.04876809042008197,0.022258059269764846,-0.03125,-0.092529296875,0.061279296875,-0.05398427006137796,-1.3289527781052783,0.0006401286099126431,-0.3124039446721312,0.025300763030245612,-0.28173828125,-0.395263671875,0.113525390625,3.9796151867746223,-2.062514648811195,0.0006344198529186145,1.0014568391393444,0.02518769248896402,1.076904296875,0.97607421875,0.100830078125,3.9835545250521527,2.332069358197376,0.0006255804246037343,1.050721647588087,0.025011605798183657,1.1251152297452796,1.029558470634357,0.09555675911092254,3.3559122294108343,2.145743798794402,0.000616281978398813,1.0493614727710672,0.024825027258772808,1.124580994036233,1.0289069636986183,0.09567403033761468,3.4062804129101636,2.1502750552818735,0.0006446252399881048,1.0028815427357036,0.025389471045850973,1.0774621722757087,0.9768265329102662,0.10063563936544251,3.9438928702118874,2.3262738914933623,6.889941472955087,-2.9715676229508197,2.624869801143494,5.5,-9.234375,14.734375,1.8400034639311498,0.9087718331533222,0.9502673873484461,-0.3199282786885246,0.9748165916460625,2.71875,-2.6796875,5.3984375,2.270766241763094,0.8100166767210235,0.8868115701310622,-2.042904713114754,0.9417067325505655,0.578125,-3.0,3.578125,1.8911407295357563,1.7164516650133306,2.1977081793771203,4.419083870378915,1.4824669235356047,9.33325994553551,0.7932669543965007,8.539992991139009,1.6270570260496617,0.3638477450680839,0.370958913886622,2.3912128845318152,0.6090639653489788,3.985393558534245,0.6094250780705123,3.3759684804637327,2.0256900832441325,-1.0817043915965119,2.3384481858433035,4.284019855607066,1.5291985436310431,9.299845245058181,0.5078725925982814,8.7919726524599,1.4445727494279144,0.28200138524979335,0.001993536469852774,-0.1565497568226213,0.07067054340263453,0.9457040681328659,0.9986008251632635,0.9434352574869175,-0.07776228620265858,0.4037886762611958,0.06575356244832092,0.9884756548161286,0.07084996932259408,0.036041292661092794
UMAFall_Subject_02_Fall_backwardFall_4_2016-06-13_20-58-40.csv,F,MA,6.263015048751415e-06,0.02382972592213115,0.002502601656027466,0.030517578125,0.018798828125,0.01171875,-0.04805523409168977,0.08772077450005737,1.8355299214847753e-05,-0.5770403752561475,0.004284308487357995,-0.5654296875,-0.58544921875,0.02001953125,-0.4113078756602264,0.24204470026931185,0.00038840627409721335,0.9547379290471312,0.019708025626561716,0.967529296875,0.906494140625,0.06103515625,1.987025311534179,-1.9263395646965784,0.00030271156419406543,1.1158747547500205,0.017398608110824998,1.1298689120137404,1.0707067612729262,0.05916215074081421,2.075139590525703,-1.9301083420886498,0.00030256589310482065,1.1156175847445498,0.01739442132135532,1.1296155608554137,1.0704555276686936,0.05916003318672014,2.077843653827691,-1.9306462318816935,0.00038853147693838333,0.9550384317874668,0.019711201813648587,0.9678131310938501,0.9067908021735527,0.061022328920297464,1.986551276317062,-1.9263647450907462,1.5412498599193136,-3.3493852459016393,1.2414708453762873,-1.09375,-4.9453125,3.8515625,-1.5727798026800948,0.35069546526645556,0.6140128714139347,-0.1834016393442623,0.783589734117245,2.1875,-0.9921875,3.1796875,-0.392643948735814,0.8903941022607887,0.07360059394211066,-2.5810706967213113,0.27129429397263527,-1.03125,-2.984375,1.953125,17.145648758923137,3.2744241010436066,0.8124758324225175,4.393985850456061,0.9013744130063364,5.678376310137542,2.8368412816072825,2.84153502853026,-1.5398556995243249,-0.2644434319344536,0.07840279930888677,2.700886096957001,0.28000499872124923,3.563048203434806,1.3225987971130928,2.240449406321713,10.056830292971348,-1.7146771309206832,0.8344650697224942,4.3183213923997465,0.9134905964061667,5.5951573823095,2.7626882359510816,2.8324691463584184,-1.5231477414934198,-0.26621514698667165,-0.07323028302753623,0.14577599937947605,-0.2102513131734937,0.9922779481841154,0.9999953336065162,0.9922798155788302,0.0782470838327625,-0.18235304289035184,-0.16880213677078965,0.9977127319902717,0.0074163767037378646,-0.023638363780214354
UMAFall_Subject_02_Fall_backwardFall_5_2016-06-13_20-59-19.csv,F,MA,0.0006535229787149065,0.013587826588114754,0.025564095499643762,0.03125,-0.031005859375,0.062255859375,-0.7924826541562147,-1.0964534113741136,0.0005122811416459214,-0.4430391905737705,0.02263362855677192,-0.36376953125,-0.46826171875,0.1044921875,6.370491797411633,2.6384741640394282,0.0007080890116144398,1.0077964907786885,0.026609941969392564,1.03125,0.968994140625,0.062255859375,-1.5837318368416584,-0.6570417611733043,0.0007691966838712365,1.1014575374982714,0.027734395321896536,1.12802438049482,1.0369131473746316,0.09111123312018843,-1.0209623100112046,-0.7599164511816742,0.0007694901282914084,1.101081731643592,0.027739685079167867,1.1275914333173709,1.0366256936573637,0.0909657396600072,-1.0211848458625048,-0.7602707031866062,0.0007076071331204587,1.0082071609165129,0.02660088594615711,1.0317233762011986,0.9694222916971916,0.062301084504006954,-1.5835657532080645,-0.6571491646463852,2.703669880517845,-3.1234631147540983,1.644284002390659,0.796875,-6.2421875,7.0390625,-0.11302990067027041,0.6239714232197981,0.7166759053214652,-0.22899590163934427,0.8465671298375961,2.2265625,-2.265625,4.4921875,1.1663185128115208,0.9931687161453588,0.30607930167776637,-2.4444159836065573,0.5532443417494357,0.1875,-2.984375,3.171875,9.276099915753589,2.7830203875738677,1.4068598132470636,4.250314113938436,1.1861112145355779,7.0270256407294225,0.8513832953640799,6.175642345365342,0.3460396353051367,-0.45248368370042397,0.2558794449237948,2.6042105621761373,0.5058452776529546,3.4263045673555133,0.578125,2.8481795673555133,4.828238698831787,-1.8900229004728077,1.4927370298083735,4.150100532619582,1.2217761782783185,6.664946270530806,0.6525191568069094,6.012427113723897,0.24784323842641554,-0.5241102361251058,0.1644453220683441,-0.11553840711099901,-0.23603956392545378,0.9528994041944665,0.9999982553129363,0.9529836532592378,-0.017384143388450336,0.2827074075696973,0.05959226673476119,0.9939885810102053,0.45765590672499373,0.42648586160278035
UMAFall_Subject_02_Fall_backwardFall_6_2016-06-13_20-59-59.csv,F,MA,0.0003671916781878862,-0.006471727715163934,0.019162246167604837,0.077392578125,-0.030029296875,0.107421875,12.040132580441831,3.458378456811798,0.0004650774874973817,-0.763031506147541,0.02156565527632726,-0.718994140625,-0.7802734375,0.061279296875,-0.005068737518699962,1.3445953044535797,0.0008576164154407104,0.7546066534323771,0.029285088619307786,0.821044921875,0.72509765625,0.095947265625,0.7431447146465024,1.5699417155613093,0.0008513750729451066,1.0735524805393037,0.029178332250920487,1.1288313527324774,1.0232563877740475,0.10557496495842988,-0.2799771833777127,0.21231657522562358,0.0008586973729113861,1.0733613887259645,0.02930353857320624,1.1288091492389574,1.0232186411030455,0.10559050813591186,-0.29108155270541847,0.20747663265646127,0.0008527677607900011,0.7548768283468633,0.029202187602814983,0.8210754479601622,0.7252556317283995,0.09581981623176272,0.7369256763096632,1.566003612396322,2.6876807374380975,-3.7410348360655736,1.6394147545505675,0.0,-8.703125,8.703125,0.45183026283916883,-0.10971678686487481,1.199389281559512,0.15778688524590165,1.0951663259795346,2.6171875,-2.4921875,5.109375,-0.22854973051616456,0.5400796833641602,0.6784636617358265,-2.285732581967213,0.823689056462344,0.5234375,-3.0,3.5234375,4.3318991947523955,2.1824376141352806,1.9977442062158852,4.6658875197734355,1.4134157938186078,9.180192805241415,0.5470981687503624,8.633094636491052,1.3746484754112078,0.08037205237250822,0.3082999102853242,2.60639459653403,0.5552476116880866,3.7762832178487686,0.5470981687503624,3.2291850490984064,2.688673760241776,-1.2941664043841479,2.0861771717155793,4.5253617799109085,1.444360471529036,8.799219825146432,0.015625,8.783594825146432,1.5234058574874796,-0.22575843580925045,0.3313328662504103,-0.06111463878712731,-0.30152052540874735,0.8649379117562247,0.9998518558162133,0.863009763065855,-0.10833982742568478,0.05289791007579652,0.2398549052303295,0.9894435949499856,0.4037174617614666,0.39554167839838494
UMAFall_Subject_02_Fall_forwardFall_1_2016-06-13_20-43-52.csv,F,MA,2.4215152354839723e-05,-0.29434954533811475,0.004920889386568217,-0.283203125,-0.302734375,0.01953125,-0.8537323094525457,0.4617122714825089,7.5522342014833875e-06,-0.578705334272541,0.002748132857320291,-0.5703125,-0.58349609375,0.01318359375,0.5893731924628818,0.8406749711065771,2.4678863462854602e-05,0.8875472272028688,0.004967782549876213,0.901611328125,0.87939453125,0.022216796875,0.42301994484585226,0.6384472338312617,1.127145654769705e-05,1.0996936089178821,0.003357298995874072,1.109155122700228,1.0930302567861794,0.016124865914048714,0.669675970844188,0.5564528625182652,1.4688970463317797e-05,1.0595551892102362,0.003832619269288015,1.0714818873082792,1.052083113012511,0.019398774295768195,1.1695581060106468,0.7419068396017463,1.6948435353871993e-05,0.9351006134308111,0.0041168477448008675,0.9460732732646941,0.9277762955681033,0.018296977696590888,-0.0009706297738309999,0.3322617296815004,1.6526259792307036,-3.825563524590164,1.2855450125260894,-1.15625,-6.546875,5.390625,-0.4842457850015025,0.4508545366297176,2.5709849206476263,-0.15765881147540983,1.6034291130722387,4.4140625,-4.7890625,9.203125,2.1012696046264585,0.04809480004020538,1.1079389728483606,-1.8876793032786885,1.0525868006242338,0.6796875,-2.984375,3.6640625,0.6095507200986461,1.3714265905165075,1.2246418925089513,4.718337350531813,1.1066353927599422,8.145399571518116,2.009331866761001,6.136067704757115,1.3648580658300578,0.009534751325066404,0.8032561496161623,2.533123586124533,0.8962455855490515,4.8627274408568795,0.5031638183782693,4.3595636224786105,1.367901652975557,0.14015633744344555,1.2552863829266818,4.436087386875834,1.120395636784918,6.5888097977389855,1.292726799492066,5.29608299824692,-0.0032442626768989236,-0.7085841991048956,0.391385796464501,0.5314819297340275,0.39235789518869674,0.9123750877166783,0.9352953529585547,0.911452004802489,0.4160572844296042,-0.1171859397702678,-0.08166287968025393,0.8890174358177846,0.4112450038180101,0.09198498088420083
UMAFall_Subject_02_Fall_forwardFall_2_2016-06-13_20-45-53.csv,F,MA,0.0006397195526810943,-0.05010486039959016,0.02529267784717732,-0.03125,-0.093017578125,0.061767578125,-1.1430091342462632,-0.9234838406142069,1.7217241349767464e-05,-0.7350273757684426,0.0041493663793123236,-0.72412109375,-0.744140625,0.02001953125,0.4254385537468792,0.7337787225252383,0.00047847934759379736,0.7647244813012295,0.02187417078642748,0.78125,0.71923828125,0.06201171875,0.05485967136455949,-1.3870053597360892,0.0002902803075206347,1.06226670550029,0.017037614490316263,1.0788784987563407,1.0254091678940935,0.053469330862247144,0.057611880435707086,-1.3559122677063942,0.0003017628039133841,1.0607825083272868,0.017371321305916374,1.075755403938169,1.0218282671400305,0.05392713679813843,0.11216363744857727,-1.3992555771146375,0.0004566307498349883,0.7667885967514262,0.021368920184112915,0.785313414980336,0.7200851064953823,0.06522830848495376,0.03304945116006497,-1.3567353601989567,1.7909413155310794,-3.7588370901639343,1.3382605559199148,-1.0390625,-6.75,5.7109375,-0.4825957685008455,0.5582604843727687,0.694017387348446,-0.2808657786885246,0.83307705967002,2.59375,-2.4921875,5.0859375,1.4336804004574528,0.7589721979720779,0.7844188252433402,-2.1694415983606556,0.885674220717381,0.7890625,-3.0,3.7890625,4.756522232015539,2.2987678160933367,1.3910605851801727,4.55650563114311,1.179432314793932,6.929106162199512,1.2695973540482235,5.659508808151288,0.41494312391871313,-0.7821631148057228,0.3581825227016184,2.4263658647528303,0.598483519156224,3.668116427405215,0.4680333062734425,3.200083121131773,3.0597483205651486,-1.54234881748574,1.4321390058074284,4.467640644006104,1.1967201033689658,6.913232647939114,1.2634288430324243,5.649803804906689,0.20226770187900378,-0.6948613464510394,-0.09853224210917429,0.2546520358842418,-0.5387478815730901,0.9897882148681894,0.9965156971596664,0.9864242476608494,0.08936627787991354,0.15464431109668164,-0.13208621909489338,0.992916082844879,0.44544994731500304,0.40612673603011107
UMAFall_Subject_02_Fall_forwardFall_2_2016-06-13_20-48-20.csv,F,MA,4.213787818867001e-06,0.13478163422131148,0.002052751280322826,0.13916015625,0.130615234375,0.008544921875,-0.5037411581617612,0.15768853414532688,4.6712778956512265e-06,-1.0269235079405739,0.002161313928065802,-1.023193359375,-1.03125,0.008056640625,-0.8462466553902979,-0.18111587162815068,5.468547018499322e-05,0.2951379994877049,0.007394962487057876,0.3359375,0.281982421875,0.053955078125,14.636387907748015,2.6879073264899955,6.836481057274357e-06,1.0769866400352024,0.00261466652888554,1.0901199319024208,1.0723541723492733,0.01776575955314752,9.520262547374914,2.0550210278290573,7.14615730590633e-06,1.0685175172087862,0.002673229751799559,1.0822666614472158,1.063821335629615,0.018445325817600944,10.632888747597262,2.219591919037489,4.2286402067465775e-05,0.324482462051507,0.006502799556150088,0.360436323581692,0.3139130117961257,0.04652331178556629,14.775005043369573,2.7016181451135037,1.254625030684341,-4.038422131147541,1.120100455621879,-1.0546875,-6.7578125,5.703125,1.0331204591439542,0.9231704599006582,0.510114859492401,-0.45120389344262296,0.7142232560568166,2.1015625,-0.9921875,3.09375,2.2814603142028993,1.8212759439704647,0.31652255032231896,-2.3466956967213113,0.562603368566452,0.3984375,-2.96875,3.3671875,14.106093426960912,3.555022426206471,0.6627046178468065,4.838876081507939,0.8140667158450875,6.857946712061034,2.8364109453288413,4.0215357667321925,0.5696546865247187,-0.7597884187706878,0.18918950157776995,2.5174518047017806,0.43495919530200755,3.0658862019202537,0.5800222247897058,2.485863977130548,9.184093494724356,-2.841704637350087,0.6987731230509016,4.761712637243675,0.835926505771232,6.854701924705589,2.7999829972977066,4.054718927407882,0.5049960199318217,-0.7435689592199729,-0.1280511732936489,-0.37861735842305333,0.1924966288158262,0.623528950763739,0.9953397354165527,0.6397072183993737,0.19099862868380643,-0.36275498465454226,0.11204201252906149,0.9971920093052815,-0.2477278649743442,-0.26038129971275675
